block	trial	Vstim	Astim	match	C/I	resp	result	RT	fb	V-file	A-file

LR

0	1	1	2	0	C	1	1	1225	1	Ⴞ	cut_oo.wav
0	2	2	4	0	C	2	0	812	0	Ⴉ	cut_ee.wav
0	3	1	1	1	C	1	0	685	0	Ⴞ	cut_eeuw.wav
0	4	2	3	1	C	2	1	504	1	Ⴉ	cut_g.wav
0	5	2	4	0	C	1	1	541	1	Ⴉ	cut_ee.wav
0	6	1	1	1	C	2	1	565	1	Ⴞ	cut_eeuw.wav
0	7	1	2	0	C	1	1	650	1	Ⴞ	cut_oo.wav
0	8	2	3	1	C	2	1	546	1	Ⴉ	cut_g.wav
0	9	1	2	0	C	2	0	437	0	Ⴞ	cut_oo.wav
0	10	1	1	1	C	2	1	592	1	Ⴞ	cut_eeuw.wav
0	11	2	4	0	C	1	1	578	1	Ⴉ	cut_ee.wav
0	12	2	3	1	C	2	1	617	1	Ⴉ	cut_g.wav
0	13	2	3	1	C	1	0	583	0	Ⴉ	cut_g.wav
0	14	2	4	0	C	2	0	372	0	Ⴉ	cut_ee.wav
0	15	1	1	1	C	2	1	441	1	Ⴞ	cut_eeuw.wav
0	16	1	2	0	C	1	1	628	1	Ⴞ	cut_oo.wav
0	17	2	4	0	C	1	1	638	1	Ⴉ	cut_ee.wav
0	18	1	2	0	C	1	1	1088	1	Ⴞ	cut_oo.wav
0	19	1	1	1	C	2	1	583	1	Ⴞ	cut_eeuw.wav
0	20	2	3	1	C	1	0	527	0	Ⴉ	cut_g.wav
0	21	1	2	0	C	1	1	679	1	Ⴞ	cut_oo.wav
0	22	2	4	0	C	1	1	639	1	Ⴉ	cut_ee.wav
0	23	1	1	1	C	2	1	455	1	Ⴞ	cut_eeuw.wav
0	24	2	3	1	C	2	1	725	1	Ⴉ	cut_g.wav
0	25	2	4	0	C	1	1	642	1	Ⴉ	cut_ee.wav
0	26	2	3	1	C	2	1	741	1	Ⴉ	cut_g.wav
0	27	1	1	1	C	2	1	534	1	Ⴞ	cut_eeuw.wav
0	28	1	2	0	C	2	0	819	0	Ⴞ	cut_oo.wav
0	29	1	1	1	C	2	1	927	1	Ⴞ	cut_eeuw.wav
0	30	2	4	0	C	1	1	709	1	Ⴉ	cut_ee.wav
avg_resp = 663
1	1	4	3	2	I	1	0	1186	1	Ⴊ	cut_r.wav
1	2	3	3	2	I	1	0	628	0	Ⴢ	cut_r.wav
1	3	2	1	0	C	1	1	730	1	Ⴞ	cut_s.wav
1	4	1	1	1	C	2	1	754	1	Ⴜ	cut_s.wav
1	5	2	2	1	C	1	0	820	0	Ⴞ	cut_ei.wav
1	6	1	2	0	C	1	1	644	1	Ⴜ	cut_ei.wav
1	7	4	4	2	I	1	0	651	0	Ⴊ	cut_n.wav
1	8	3	4	2	I	1	0	668	0	Ⴢ	cut_n.wav
1	9	4	3	2	I	2	0	668	0	Ⴊ	cut_r.wav
1	10	1	1	1	C	1	0	694	0	Ⴜ	cut_s.wav
1	11	2	2	1	C	2	1	614	1	Ⴞ	cut_ei.wav
1	12	3	4	2	I	1	0	762	1	Ⴢ	cut_n.wav
1	13	1	2	0	C	1	1	1061	1	Ⴜ	cut_ei.wav
1	14	4	4	2	I	1	0	855	1	Ⴊ	cut_n.wav
1	15	2	1	0	C	1	1	822	1	Ⴞ	cut_s.wav
1	16	3	3	2	I	1	0	927	0	Ⴢ	cut_r.wav
1	17	4	4	2	I	1	0	828	0	Ⴊ	cut_n.wav
1	18	3	4	2	I	1	0	757	0	Ⴢ	cut_n.wav
1	19	2	2	1	C	2	1	696	1	Ⴞ	cut_ei.wav
1	20	1	2	0	C	1	1	651	1	Ⴜ	cut_ei.wav
1	21	2	1	0	C	1	1	823	1	Ⴞ	cut_s.wav
1	22	1	1	1	C	1	0	946	0	Ⴜ	cut_s.wav
1	23	4	3	2	I	2	0	819	0	Ⴊ	cut_r.wav
1	24	3	3	2	I	2	0	785	1	Ⴢ	cut_r.wav
1	25	4	4	2	I	2	0	883	0	Ⴊ	cut_n.wav
1	26	1	1	1	C	2	1	813	1	Ⴜ	cut_s.wav
1	27	3	3	2	I	1	0	878	1	Ⴢ	cut_r.wav
1	28	2	2	1	C	2	1	887	1	Ⴞ	cut_ei.wav
1	29	3	4	2	I	1	0	897	0	Ⴢ	cut_n.wav
1	30	1	2	0	C	1	1	1099	1	Ⴜ	cut_ei.wav
1	31	4	3	2	I	1	0	882	1	Ⴊ	cut_r.wav
1	32	2	1	0	C	1	1	991	1	Ⴞ	cut_s.wav
1	33	1	1	1	C	1	0	628	0	Ⴜ	cut_s.wav
1	34	3	4	2	I	2	0	972	1	Ⴢ	cut_n.wav
1	35	4	3	2	I	2	0	926	1	Ⴊ	cut_r.wav
1	36	2	1	0	C	1	1	894	1	Ⴞ	cut_s.wav
1	37	3	3	2	I	1	0	1046	1	Ⴢ	cut_r.wav
1	38	2	2	1	C	2	1	511	1	Ⴞ	cut_ei.wav
1	39	1	2	0	C	1	1	798	1	Ⴜ	cut_ei.wav
1	40	4	4	2	I	2	0	1084	0	Ⴊ	cut_n.wav
1	41	1	2	0	C	1	1	1064	1	Ⴜ	cut_ei.wav
1	42	2	2	1	C	2	1	777	1	Ⴞ	cut_ei.wav
1	43	4	3	2	I	1	0	1122	1	Ⴊ	cut_r.wav
1	44	3	4	2	I	1	0	1003	1	Ⴢ	cut_n.wav
1	45	2	1	0	C	2	0	745	0	Ⴞ	cut_s.wav
1	46	3	3	2	I	1	0	927	1	Ⴢ	cut_r.wav
1	47	1	1	1	C	2	1	820	1	Ⴜ	cut_s.wav
1	48	4	4	2	I	1	0	1391	1	Ⴊ	cut_n.wav
1	49	3	4	2	I	1	0	828	0	Ⴢ	cut_n.wav
1	50	1	2	0	C	1	1	863	1	Ⴜ	cut_ei.wav
1	51	4	3	2	I	1	0	1349	1	Ⴊ	cut_r.wav
1	52	2	1	0	C	1	1	912	1	Ⴞ	cut_s.wav
1	53	4	4	2	I	1	0	1673	0	Ⴊ	cut_n.wav
1	54	3	3	2	I	1	0	885	1	Ⴢ	cut_r.wav
1	55	1	1	1	C	1	0	965	0	Ⴜ	cut_s.wav
1	56	2	2	1	C	2	1	610	1	Ⴞ	cut_ei.wav
1	57	3	4	2	I	1	0	721	0	Ⴢ	cut_n.wav
1	58	1	2	0	C	1	1	1147	1	Ⴜ	cut_ei.wav
1	59	4	3	2	I	0	0	0	0	Ⴊ	cut_r.wav
1	60	2	2	1	C	2	1	869	1	Ⴞ	cut_ei.wav
1	61	4	4	2	I	1	0	839	0	Ⴊ	cut_n.wav
1	62	3	3	2	I	1	0	758	0	Ⴢ	cut_r.wav
1	63	2	1	0	C	2	0	663	0	Ⴞ	cut_s.wav
1	64	1	1	1	C	1	0	791	0	Ⴜ	cut_s.wav
1	65	4	4	2	I	1	0	1677	1	Ⴊ	cut_n.wav
1	66	3	4	2	I	1	0	794	1	Ⴢ	cut_n.wav
1	67	2	2	1	C	2	1	691	1	Ⴞ	cut_ei.wav
1	68	1	1	1	C	2	1	799	1	Ⴜ	cut_s.wav
1	69	3	3	2	I	2	0	776	1	Ⴢ	cut_r.wav
1	70	2	1	0	C	1	1	846	1	Ⴞ	cut_s.wav
1	71	1	2	0	C	1	1	760	1	Ⴜ	cut_ei.wav
1	72	4	3	2	I	1	0	779	0	Ⴊ	cut_r.wav
1	73	2	2	1	C	2	1	559	1	Ⴞ	cut_ei.wav
1	74	1	1	1	C	1	0	532	0	Ⴜ	cut_s.wav
1	75	3	3	2	I	2	0	570	1	Ⴢ	cut_r.wav
1	76	4	3	2	I	1	0	776	1	Ⴊ	cut_r.wav
1	77	2	1	0	C	2	0	548	0	Ⴞ	cut_s.wav
1	78	4	4	2	I	1	0	768	1	Ⴊ	cut_n.wav
1	79	3	4	2	I	1	0	635	1	Ⴢ	cut_n.wav
1	80	1	2	0	C	1	1	548	1	Ⴜ	cut_ei.wav
1	81	2	1	0	C	1	1	895	1	Ⴞ	cut_s.wav
1	82	3	4	2	I	1	0	708	1	Ⴢ	cut_n.wav
1	83	1	2	0	C	1	1	1040	1	Ⴜ	cut_ei.wav
1	84	4	3	2	I	1	0	928	0	Ⴊ	cut_r.wav
1	85	2	2	1	C	2	1	685	1	Ⴞ	cut_ei.wav
1	86	1	1	1	C	1	0	759	0	Ⴜ	cut_s.wav
1	87	4	4	2	I	1	0	789	1	Ⴊ	cut_n.wav
1	88	3	3	2	I	1	0	900	1	Ⴢ	cut_r.wav
1	89	2	1	0	C	2	0	632	0	Ⴞ	cut_s.wav
1	90	1	2	0	C	1	1	915	1	Ⴜ	cut_ei.wav
1	91	4	3	2	I	2	0	1278	0	Ⴊ	cut_r.wav
1	92	3	4	2	I	1	0	774	1	Ⴢ	cut_n.wav
1	93	4	4	2	I	1	0	653	1	Ⴊ	cut_n.wav
1	94	3	3	2	I	1	0	1148	1	Ⴢ	cut_r.wav
1	95	1	1	1	C	2	1	961	1	Ⴜ	cut_s.wav
1	96	2	2	1	C	2	1	674	1	Ⴞ	cut_ei.wav
1	97	4	3	2	I	2	0	700	0	Ⴊ	cut_r.wav
1	98	2	1	0	C	1	1	793	1	Ⴞ	cut_s.wav
1	99	3	3	2	I	2	0	783	0	Ⴢ	cut_r.wav
1	100	1	1	1	C	1	0	590	0	Ⴜ	cut_s.wav
1	101	4	4	2	I	1	0	674	1	Ⴊ	cut_n.wav
1	102	2	2	1	C	2	1	810	1	Ⴞ	cut_ei.wav
1	103	3	4	2	I	1	0	691	0	Ⴢ	cut_n.wav
1	104	1	2	0	C	1	1	742	1	Ⴜ	cut_ei.wav
1	105	4	3	2	I	1	0	838	1	Ⴊ	cut_r.wav
1	106	2	2	1	C	2	1	598	1	Ⴞ	cut_ei.wav
1	107	3	3	2	I	2	0	875	0	Ⴢ	cut_r.wav
1	108	1	2	0	C	2	0	686	0	Ⴜ	cut_ei.wav
1	109	3	4	2	I	1	0	992	0	Ⴢ	cut_n.wav
1	110	4	4	2	I	1	0	818	0	Ⴊ	cut_n.wav
1	111	2	1	0	C	1	1	799	1	Ⴞ	cut_s.wav
1	112	1	1	1	C	1	0	599	0	Ⴜ	cut_s.wav
1	113	4	4	2	I	1	0	530	0	Ⴊ	cut_n.wav
1	114	2	2	1	C	2	1	627	1	Ⴞ	cut_ei.wav
1	115	1	1	1	C	1	0	863	0	Ⴜ	cut_s.wav
1	116	3	3	2	I	1	0	711	0	Ⴢ	cut_r.wav
1	117	4	3	2	I	1	0	593	1	Ⴊ	cut_r.wav
1	118	3	4	2	I	2	0	763	1	Ⴢ	cut_n.wav
1	119	1	2	0	C	1	1	760	1	Ⴜ	cut_ei.wav
1	120	2	1	0	C	1	1	848	1	Ⴞ	cut_s.wav
1	121	3	4	2	I	1	0	578	0	Ⴢ	cut_n.wav
1	122	4	4	2	I	1	0	617	1	Ⴊ	cut_n.wav
1	123	1	1	1	C	1	0	745	0	Ⴜ	cut_s.wav
1	124	2	1	0	C	1	1	763	1	Ⴞ	cut_s.wav
1	125	1	2	0	C	1	1	871	1	Ⴜ	cut_ei.wav
1	126	2	2	1	C	2	1	781	1	Ⴞ	cut_ei.wav
1	127	4	3	2	I	1	0	805	1	Ⴊ	cut_r.wav
1	128	3	3	2	I	2	0	889	0	Ⴢ	cut_r.wav
1	129	1	1	1	C	2	1	913	1	Ⴜ	cut_s.wav
1	130	3	4	2	I	1	0	681	1	Ⴢ	cut_n.wav
1	131	2	2	1	C	2	1	597	1	Ⴞ	cut_ei.wav
1	132	4	3	2	I	1	0	740	0	Ⴊ	cut_r.wav
1	133	1	2	0	C	1	1	811	1	Ⴜ	cut_ei.wav
1	134	2	1	0	C	1	1	924	1	Ⴞ	cut_s.wav
1	135	3	3	2	I	2	0	1107	0	Ⴢ	cut_r.wav
1	136	4	4	2	I	1	0	659	0	Ⴊ	cut_n.wav
1	137	1	2	0	C	1	1	625	1	Ⴜ	cut_ei.wav
1	138	2	1	0	C	2	0	527	0	Ⴞ	cut_s.wav
1	139	3	3	2	I	1	0	501	1	Ⴢ	cut_r.wav
1	140	4	4	2	I	1	0	909	1	Ⴊ	cut_n.wav
1	141	2	2	1	C	2	1	616	1	Ⴞ	cut_ei.wav
1	142	1	1	1	C	2	1	765	1	Ⴜ	cut_s.wav
1	143	3	4	2	I	1	0	845	1	Ⴢ	cut_n.wav
1	144	4	3	2	I	2	0	721	0	Ⴊ	cut_r.wav
1	145	1	2	0	C	1	1	1157	1	Ⴜ	cut_ei.wav
1	146	3	4	2	I	1	0	631	1	Ⴢ	cut_n.wav
1	147	2	2	1	C	2	1	627	1	Ⴞ	cut_ei.wav
1	148	4	3	2	I	2	0	1511	1	Ⴊ	cut_r.wav
1	149	2	1	0	C	1	1	747	1	Ⴞ	cut_s.wav
1	150	4	4	2	I	2	0	1323	1	Ⴊ	cut_n.wav
1	151	1	1	1	C	1	0	796	0	Ⴜ	cut_s.wav
1	152	3	3	2	I	1	0	733	0	Ⴢ	cut_r.wav
1	153	4	4	2	I	2	0	718	1	Ⴊ	cut_n.wav
1	154	3	4	2	I	1	0	486	1	Ⴢ	cut_n.wav
1	155	1	2	0	C	2	0	677	0	Ⴜ	cut_ei.wav
1	156	2	1	0	C	2	0	1008	0	Ⴞ	cut_s.wav
1	157	1	1	1	C	1	0	580	0	Ⴜ	cut_s.wav
1	158	3	3	2	I	1	0	696	0	Ⴢ	cut_r.wav
1	159	2	2	1	C	2	1	434	1	Ⴞ	cut_ei.wav
1	160	4	3	2	I	2	0	497	1	Ⴊ	cut_r.wav
1	161	2	1	0	C	1	1	616	1	Ⴞ	cut_s.wav
1	162	1	1	1	C	2	1	821	1	Ⴜ	cut_s.wav
1	163	4	4	2	I	2	0	625	0	Ⴊ	cut_n.wav
1	164	3	4	2	I	1	0	603	0	Ⴢ	cut_n.wav
1	165	2	2	1	C	2	1	805	1	Ⴞ	cut_ei.wav
1	166	4	3	2	I	2	0	385	1	Ⴊ	cut_r.wav
1	167	3	3	2	I	1	0	742	0	Ⴢ	cut_r.wav
1	168	1	2	0	C	1	1	702	1	Ⴜ	cut_ei.wav
1	169	2	2	1	C	2	1	578	1	Ⴞ	cut_ei.wav
1	170	4	4	2	I	2	0	702	0	Ⴊ	cut_n.wav
1	171	1	1	1	C	1	0	490	0	Ⴜ	cut_s.wav
1	172	3	3	2	I	2	0	889	0	Ⴢ	cut_r.wav
1	173	4	3	2	I	2	0	598	0	Ⴊ	cut_r.wav
1	174	2	1	0	C	2	0	428	0	Ⴞ	cut_s.wav
1	175	1	2	0	C	1	1	581	1	Ⴜ	cut_ei.wav
1	176	3	4	2	I	1	0	498	1	Ⴢ	cut_n.wav
1	177	2	1	0	C	1	1	390	1	Ⴞ	cut_s.wav
1	178	3	3	2	I	2	0	430	0	Ⴢ	cut_r.wav
1	179	1	2	0	C	1	1	718	1	Ⴜ	cut_ei.wav
1	180	4	4	2	I	1	0	517	1	Ⴊ	cut_n.wav
1	181	2	2	1	C	2	1	520	1	Ⴞ	cut_ei.wav
1	182	4	3	2	I	1	0	541	1	Ⴊ	cut_r.wav
1	183	3	4	2	I	1	0	521	0	Ⴢ	cut_n.wav
1	184	1	1	1	C	2	1	499	1	Ⴜ	cut_s.wav
1	185	2	2	1	C	2	1	728	1	Ⴞ	cut_ei.wav
1	186	1	2	0	C	2	0	585	0	Ⴜ	cut_ei.wav
1	187	3	4	2	I	1	0	719	0	Ⴢ	cut_n.wav
1	188	4	4	2	I	2	0	569	0	Ⴊ	cut_n.wav
1	189	3	3	2	I	1	0	618	1	Ⴢ	cut_r.wav
1	190	1	1	1	C	2	1	784	1	Ⴜ	cut_s.wav
1	191	2	1	0	C	1	1	806	1	Ⴞ	cut_s.wav
1	192	4	3	2	I	2	0	786	0	Ⴊ	cut_r.wav
1	193	2	2	1	C	2	1	623	1	Ⴞ	cut_ei.wav
1	194	3	3	2	I	1	0	920	1	Ⴢ	cut_r.wav
1	195	4	3	2	I	1	0	815	0	Ⴊ	cut_r.wav
1	196	1	2	0	C	2	0	650	0	Ⴜ	cut_ei.wav
1	197	4	4	2	I	1	0	802	0	Ⴊ	cut_n.wav
1	198	2	1	0	C	1	1	723	1	Ⴞ	cut_s.wav
1	199	1	1	1	C	1	0	462	0	Ⴜ	cut_s.wav
1	200	3	4	2	I	1	0	1097	0	Ⴢ	cut_n.wav
2	1	1	1	1	C	1	0	1921	0	Ⴥ	cut_ieuw.wav
2	2	2	1	0	C	1	1	681	1	Ⴁ	cut_ieuw.wav
2	3	4	4	2	I	1	0	627	0	Ⴂ	cut_nk.wav
2	4	3	4	2	I	2	0	714	0	Ⴟ	cut_nk.wav
2	5	4	3	2	I	1	0	628	0	Ⴂ	cut_eeuw.wav
2	6	1	2	0	C	2	0	689	0	Ⴥ	cut_ooi.wav
2	7	3	3	2	I	2	0	698	1	Ⴟ	cut_eeuw.wav
2	8	2	2	1	C	1	0	663	0	Ⴁ	cut_ooi.wav
2	9	1	1	1	C	1	0	899	0	Ⴥ	cut_ieuw.wav
2	10	3	4	2	I	1	0	730	1	Ⴟ	cut_nk.wav
2	11	2	1	0	C	2	0	996	0	Ⴁ	cut_ieuw.wav
2	12	4	3	2	I	2	0	698	1	Ⴂ	cut_eeuw.wav
2	13	3	3	2	I	1	0	928	1	Ⴟ	cut_eeuw.wav
2	14	1	2	0	C	1	1	722	1	Ⴥ	cut_ooi.wav
2	15	2	2	1	C	1	0	607	0	Ⴁ	cut_ooi.wav
2	16	4	4	2	I	1	0	875	0	Ⴂ	cut_nk.wav
2	17	3	4	2	I	2	0	597	0	Ⴟ	cut_nk.wav
2	18	2	1	0	C	1	1	985	1	Ⴁ	cut_ieuw.wav
2	19	1	2	0	C	1	1	736	1	Ⴥ	cut_ooi.wav
2	20	4	3	2	I	1	0	703	0	Ⴂ	cut_eeuw.wav
2	21	3	3	2	I	2	0	636	0	Ⴟ	cut_eeuw.wav
2	22	4	4	2	I	1	0	261	1	Ⴂ	cut_nk.wav
2	23	2	2	1	C	1	0	812	0	Ⴁ	cut_ooi.wav
2	24	1	1	1	C	1	0	597	0	Ⴥ	cut_ieuw.wav
2	25	3	4	2	I	1	0	795	0	Ⴟ	cut_nk.wav
2	26	1	1	1	C	1	0	803	0	Ⴥ	cut_ieuw.wav
2	27	4	3	2	I	1	0	742	0	Ⴂ	cut_eeuw.wav
2	28	2	1	0	C	1	1	870	1	Ⴁ	cut_ieuw.wav
2	29	1	2	0	C	2	0	1107	0	Ⴥ	cut_ooi.wav
2	30	3	3	2	I	1	0	570	1	Ⴟ	cut_eeuw.wav
2	31	4	4	2	I	1	0	504	1	Ⴂ	cut_nk.wav
2	32	2	2	1	C	2	1	1096	1	Ⴁ	cut_ooi.wav
2	33	1	2	0	C	1	1	817	1	Ⴥ	cut_ooi.wav
2	34	2	2	1	C	1	0	772	0	Ⴁ	cut_ooi.wav
2	35	3	4	2	I	1	0	622	0	Ⴟ	cut_nk.wav
2	36	4	4	2	I	1	0	617	0	Ⴂ	cut_nk.wav
2	37	2	1	0	C	1	1	772	1	Ⴁ	cut_ieuw.wav
2	38	4	3	2	I	1	0	630	0	Ⴂ	cut_eeuw.wav
2	39	1	1	1	C	1	0	581	0	Ⴥ	cut_ieuw.wav
2	40	3	3	2	I	1	0	644	1	Ⴟ	cut_eeuw.wav
2	41	4	3	2	I	1	0	494	1	Ⴂ	cut_eeuw.wav
2	42	1	1	1	C	2	1	871	1	Ⴥ	cut_ieuw.wav
2	43	2	1	0	C	1	1	605	1	Ⴁ	cut_ieuw.wav
2	44	3	3	2	I	1	0	548	0	Ⴟ	cut_eeuw.wav
2	45	2	2	1	C	2	1	1001	1	Ⴁ	cut_ooi.wav
2	46	3	4	2	I	1	0	640	0	Ⴟ	cut_nk.wav
2	47	4	4	2	I	1	0	757	1	Ⴂ	cut_nk.wav
2	48	1	2	0	C	2	0	1000	0	Ⴥ	cut_ooi.wav
2	49	4	4	2	I	1	0	753	0	Ⴂ	cut_nk.wav
2	50	3	4	2	I	2	0	665	1	Ⴟ	cut_nk.wav
2	51	2	1	0	C	1	1	1165	1	Ⴁ	cut_ieuw.wav
2	52	1	2	0	C	1	1	1797	1	Ⴥ	cut_ooi.wav
2	53	3	3	2	I	1	0	912	0	Ⴟ	cut_eeuw.wav
2	54	4	3	2	I	1	0	676	1	Ⴂ	cut_eeuw.wav
2	55	1	1	1	C	2	1	1482	1	Ⴥ	cut_ieuw.wav
2	56	2	2	1	C	2	1	1726	1	Ⴁ	cut_ooi.wav
2	57	4	4	2	I	1	0	638	0	Ⴂ	cut_nk.wav
2	58	2	1	0	C	1	1	1111	1	Ⴁ	cut_ieuw.wav
2	59	1	1	1	C	1	0	1581	0	Ⴥ	cut_ieuw.wav
2	60	3	4	2	I	2	0	788	0	Ⴟ	cut_nk.wav
2	61	2	2	1	C	2	1	1593	1	Ⴁ	cut_ooi.wav
2	62	3	3	2	I	1	0	1553	0	Ⴟ	cut_eeuw.wav
2	63	1	2	0	C	1	1	1256	1	Ⴥ	cut_ooi.wav
2	64	4	3	2	I	1	0	938	1	Ⴂ	cut_eeuw.wav
2	65	3	4	2	I	2	0	723	1	Ⴟ	cut_nk.wav
2	66	4	3	2	I	1	0	696	0	Ⴂ	cut_eeuw.wav
2	67	2	1	0	C	1	1	1153	1	Ⴁ	cut_ieuw.wav
2	68	1	2	0	C	1	1	983	1	Ⴥ	cut_ooi.wav
2	69	3	3	2	I	1	0	874	0	Ⴟ	cut_eeuw.wav
2	70	4	4	2	I	1	0	556	1	Ⴂ	cut_nk.wav
2	71	1	1	1	C	1	0	1104	0	Ⴥ	cut_ieuw.wav
2	72	2	2	1	C	2	1	1175	1	Ⴁ	cut_ooi.wav
2	73	3	3	2	I	1	0	788	0	Ⴟ	cut_eeuw.wav
2	74	1	1	1	C	1	0	859	0	Ⴥ	cut_ieuw.wav
2	75	2	1	0	C	1	1	957	1	Ⴁ	cut_ieuw.wav
2	76	4	3	2	I	1	0	865	0	Ⴂ	cut_eeuw.wav
2	77	3	4	2	I	2	0	648	0	Ⴟ	cut_nk.wav
2	78	2	2	1	C	2	1	1126	1	Ⴁ	cut_ooi.wav
2	79	1	2	0	C	1	1	996	1	Ⴥ	cut_ooi.wav
2	80	4	4	2	I	2	0	1074	1	Ⴂ	cut_nk.wav
2	81	1	2	0	C	2	0	1163	0	Ⴥ	cut_ooi.wav
2	82	3	3	2	I	2	0	1736	1	Ⴟ	cut_eeuw.wav
2	83	4	4	2	I	1	0	876	1	Ⴂ	cut_nk.wav
2	84	2	2	1	C	2	1	831	1	Ⴁ	cut_ooi.wav
2	85	1	1	1	C	2	1	1128	1	Ⴥ	cut_ieuw.wav
2	86	4	3	2	I	2	0	972	1	Ⴂ	cut_eeuw.wav
2	87	3	4	2	I	1	0	1211	1	Ⴟ	cut_nk.wav
2	88	2	1	0	C	1	1	1548	1	Ⴁ	cut_ieuw.wav
2	89	3	4	2	I	1	0	802	0	Ⴟ	cut_nk.wav
2	90	2	1	0	C	1	1	980	1	Ⴁ	cut_ieuw.wav
2	91	4	3	2	I	1	0	686	1	Ⴂ	cut_eeuw.wav
2	92	1	1	1	C	1	0	595	0	Ⴥ	cut_ieuw.wav
2	93	3	3	2	I	2	0	877	0	Ⴟ	cut_eeuw.wav
2	94	2	2	1	C	1	0	1163	0	Ⴁ	cut_ooi.wav
2	95	4	4	2	I	1	0	874	1	Ⴂ	cut_nk.wav
2	96	1	2	0	C	2	0	914	0	Ⴥ	cut_ooi.wav
2	97	4	3	2	I	1	0	633	0	Ⴂ	cut_eeuw.wav
2	98	2	2	1	C	2	1	818	1	Ⴁ	cut_ooi.wav
2	99	3	4	2	I	2	0	705	1	Ⴟ	cut_nk.wav
2	100	1	2	0	C	2	0	1112	0	Ⴥ	cut_ooi.wav
2	101	2	1	0	C	1	1	1420	1	Ⴁ	cut_ieuw.wav
2	102	3	3	2	I	2	0	883	0	Ⴟ	cut_eeuw.wav
2	103	1	1	1	C	2	1	1179	1	Ⴥ	cut_ieuw.wav
2	104	4	4	2	I	1	0	824	1	Ⴂ	cut_nk.wav
2	105	3	4	2	I	2	0	908	1	Ⴟ	cut_nk.wav
2	106	2	2	1	C	1	0	1905	0	Ⴁ	cut_ooi.wav
2	107	1	1	1	C	2	1	1224	1	Ⴥ	cut_ieuw.wav
2	108	4	3	2	I	1	0	610	1	Ⴂ	cut_eeuw.wav
2	109	2	1	0	C	2	0	820	0	Ⴁ	cut_ieuw.wav
2	110	3	3	2	I	2	0	1242	0	Ⴟ	cut_eeuw.wav
2	111	1	2	0	C	2	0	1189	0	Ⴥ	cut_ooi.wav
2	112	4	4	2	I	1	0	668	0	Ⴂ	cut_nk.wav
2	113	1	1	1	C	2	1	1133	1	Ⴥ	cut_ieuw.wav
2	114	2	1	0	C	1	1	1163	1	Ⴁ	cut_ieuw.wav
2	115	4	3	2	I	2	0	1189	1	Ⴂ	cut_eeuw.wav
2	116	3	3	2	I	1	0	673	1	Ⴟ	cut_eeuw.wav
2	117	4	4	2	I	2	0	1055	1	Ⴂ	cut_nk.wav
2	118	2	2	1	C	2	1	728	1	Ⴁ	cut_ooi.wav
2	119	1	2	0	C	1	1	838	1	Ⴥ	cut_ooi.wav
2	120	3	4	2	I	2	0	960	1	Ⴟ	cut_nk.wav
2	121	4	3	2	I	1	0	681	1	Ⴂ	cut_eeuw.wav
2	122	1	2	0	C	2	0	1214	0	Ⴥ	cut_ooi.wav
2	123	2	2	1	C	2	1	614	1	Ⴁ	cut_ooi.wav
2	124	3	4	2	I	2	0	822	1	Ⴟ	cut_nk.wav
2	125	2	1	0	C	1	1	1112	1	Ⴁ	cut_ieuw.wav
2	126	3	3	2	I	2	0	1428	1	Ⴟ	cut_eeuw.wav
2	127	1	1	1	C	1	0	922	0	Ⴥ	cut_ieuw.wav
2	128	4	4	2	I	1	0	1139	0	Ⴂ	cut_nk.wav
2	129	3	4	2	I	1	0	1012	0	Ⴟ	cut_nk.wav
2	130	4	4	2	I	2	0	709	0	Ⴂ	cut_nk.wav
2	131	2	1	0	C	1	1	974	1	Ⴁ	cut_ieuw.wav
2	132	1	1	1	C	1	0	871	0	Ⴥ	cut_ieuw.wav
2	133	2	2	1	C	2	1	1067	1	Ⴁ	cut_ooi.wav
2	134	3	3	2	I	1	0	941	1	Ⴟ	cut_eeuw.wav
2	135	1	2	0	C	1	1	1251	1	Ⴥ	cut_ooi.wav
2	136	4	3	2	I	1	0	749	1	Ⴂ	cut_eeuw.wav
2	137	2	1	0	C	1	1	944	1	Ⴁ	cut_ieuw.wav
2	138	1	1	1	C	1	0	560	0	Ⴥ	cut_ieuw.wav
2	139	3	4	2	I	2	0	1153	1	Ⴟ	cut_nk.wav
2	140	4	4	2	I	1	0	763	0	Ⴂ	cut_nk.wav
2	141	1	2	0	C	2	0	1222	0	Ⴥ	cut_ooi.wav
2	142	4	3	2	I	1	0	588	0	Ⴂ	cut_eeuw.wav
2	143	3	3	2	I	2	0	854	1	Ⴟ	cut_eeuw.wav
2	144	2	2	1	C	1	0	819	0	Ⴁ	cut_ooi.wav
2	145	1	1	1	C	1	0	743	0	Ⴥ	cut_ieuw.wav
2	146	3	3	2	I	2	0	911	0	Ⴟ	cut_eeuw.wav
2	147	2	2	1	C	2	1	567	1	Ⴁ	cut_ooi.wav
2	148	4	3	2	I	1	0	731	0	Ⴂ	cut_eeuw.wav
2	149	2	1	0	C	1	1	982	1	Ⴁ	cut_ieuw.wav
2	150	4	4	2	I	2	0	820	1	Ⴂ	cut_nk.wav
2	151	1	2	0	C	1	1	652	1	Ⴥ	cut_ooi.wav
2	152	3	4	2	I	2	0	1032	1	Ⴟ	cut_nk.wav
2	153	4	4	2	I	2	0	1081	1	Ⴂ	cut_nk.wav
2	154	3	3	2	I	1	0	830	1	Ⴟ	cut_eeuw.wav
2	155	1	2	0	C	1	1	871	1	Ⴥ	cut_ooi.wav
2	156	2	2	1	C	2	1	1133	1	Ⴁ	cut_ooi.wav
2	157	3	4	2	I	2	0	906	0	Ⴟ	cut_nk.wav
2	158	1	1	1	C	2	1	1079	1	Ⴥ	cut_ieuw.wav
2	159	2	1	0	C	1	1	1088	1	Ⴁ	cut_ieuw.wav
2	160	4	3	2	I	1	0	1393	1	Ⴂ	cut_eeuw.wav
2	161	1	2	0	C	1	1	1046	1	Ⴥ	cut_ooi.wav
2	162	2	2	1	C	2	1	558	1	Ⴁ	cut_ooi.wav
2	163	4	4	2	I	2	0	702	1	Ⴂ	cut_nk.wav
2	164	3	3	2	I	1	0	1089	1	Ⴟ	cut_eeuw.wav
2	165	4	3	2	I	1	0	1091	0	Ⴂ	cut_eeuw.wav
2	166	2	1	0	C	1	1	817	1	Ⴁ	cut_ieuw.wav
2	167	1	1	1	C	1	0	730	0	Ⴥ	cut_ieuw.wav
2	168	3	4	2	I	2	0	1041	1	Ⴟ	cut_nk.wav
2	169	1	2	0	C	1	1	900	1	Ⴥ	cut_ooi.wav
2	170	2	2	1	C	2	1	695	1	Ⴁ	cut_ooi.wav
2	171	4	3	2	I	2	0	859	0	Ⴂ	cut_eeuw.wav
2	172	3	4	2	I	2	0	930	1	Ⴟ	cut_nk.wav
2	173	2	1	0	C	1	1	1148	1	Ⴁ	cut_ieuw.wav
2	174	3	3	2	I	1	0	1092	1	Ⴟ	cut_eeuw.wav
2	175	4	4	2	I	2	0	666	0	Ⴂ	cut_nk.wav
2	176	1	1	1	C	2	1	1242	1	Ⴥ	cut_ieuw.wav
2	177	2	1	0	C	1	1	1017	1	Ⴁ	cut_ieuw.wav
2	178	3	4	2	I	2	0	771	0	Ⴟ	cut_nk.wav
2	179	4	3	2	I	1	0	1477	1	Ⴂ	cut_eeuw.wav
2	180	1	2	0	C	1	1	854	1	Ⴥ	cut_ooi.wav
2	181	4	4	2	I	2	0	816	0	Ⴂ	cut_nk.wav
2	182	1	1	1	C	2	1	956	1	Ⴥ	cut_ieuw.wav
2	183	3	3	2	I	2	0	671	0	Ⴟ	cut_eeuw.wav
2	184	2	2	1	C	1	0	804	0	Ⴁ	cut_ooi.wav
2	185	3	4	2	I	2	0	706	0	Ⴟ	cut_nk.wav
2	186	4	3	2	I	1	0	663	0	Ⴂ	cut_eeuw.wav
2	187	2	2	1	C	2	1	559	1	Ⴁ	cut_ooi.wav
2	188	1	2	0	C	1	1	860	1	Ⴥ	cut_ooi.wav
2	189	2	1	0	C	1	1	944	1	Ⴁ	cut_ieuw.wav
2	190	4	4	2	I	2	0	740	0	Ⴂ	cut_nk.wav
2	191	3	3	2	I	1	0	1000	0	Ⴟ	cut_eeuw.wav
2	192	1	1	1	C	2	1	1099	1	Ⴥ	cut_ieuw.wav
2	193	2	2	1	C	2	1	1022	1	Ⴁ	cut_ooi.wav
2	194	4	3	2	I	2	0	1176	0	Ⴂ	cut_eeuw.wav
2	195	1	1	1	C	2	1	1162	1	Ⴥ	cut_ieuw.wav
2	196	3	4	2	I	2	0	1050	0	Ⴟ	cut_nk.wav
2	197	4	4	2	I	2	0	724	1	Ⴂ	cut_nk.wav
2	198	2	1	0	C	1	1	1318	1	Ⴁ	cut_ieuw.wav
2	199	3	3	2	I	1	0	1390	1	Ⴟ	cut_eeuw.wav
2	200	1	2	0	C	1	1	1494	1	Ⴥ	cut_ooi.wav
