block	trial	Vstim	Astim	match	C/I	resp	result	RT	fb	V-file	A-file
LR

0	1	1	2	0	C	0	0	0	0	Ⴢ	cut_eeuw_stereo_44KHz.wav
0	2	2	4	0	C	1	1	1207	1	Ⴞ	cut_g_stereo_44KHz.wav
0	3	1	1	1	C	0	0	0	0	Ⴢ	cut_ee_stereo_44KHz.wav
0	4	2	3	1	C	1	0	902	0	Ⴞ	cut_oo_stereo_44KHz.wav
0	5	2	4	0	C	1	1	723	1	Ⴞ	cut_g_stereo_44KHz.wav
0	6	1	1	1	C	2	1	755	1	Ⴢ	cut_ee_stereo_44KHz.wav
0	7	2	3	1	C	2	1	1090	1	Ⴞ	cut_oo_stereo_44KHz.wav
0	8	1	2	0	C	2	0	756	0	Ⴢ	cut_eeuw_stereo_44KHz.wav
0	9	2	4	0	C	1	1	1006	1	Ⴞ	cut_g_stereo_44KHz.wav
0	10	2	3	1	C	2	1	792	1	Ⴞ	cut_oo_stereo_44KHz.wav
0	11	1	1	1	C	1	0	614	0	Ⴢ	cut_ee_stereo_44KHz.wav
0	12	1	2	0	C	2	0	806	0	Ⴢ	cut_eeuw_stereo_44KHz.wav
0	13	1	2	0	C	1	1	1057	1	Ⴢ	cut_eeuw_stereo_44KHz.wav
0	14	2	4	0	C	1	1	692	1	Ⴞ	cut_g_stereo_44KHz.wav
0	15	1	1	1	C	2	1	978	1	Ⴢ	cut_ee_stereo_44KHz.wav
0	16	2	3	1	C	2	1	927	1	Ⴞ	cut_oo_stereo_44KHz.wav
0	17	2	3	1	C	2	1	893	1	Ⴞ	cut_oo_stereo_44KHz.wav
0	18	2	4	0	C	1	1	655	1	Ⴞ	cut_g_stereo_44KHz.wav
0	19	1	1	1	C	2	1	816	1	Ⴢ	cut_ee_stereo_44KHz.wav
0	20	1	2	0	C	1	1	965	1	Ⴢ	cut_eeuw_stereo_44KHz.wav
0	21	2	4	0	C	1	1	748	1	Ⴞ	cut_g_stereo_44KHz.wav
0	22	2	3	1	C	2	1	813	1	Ⴞ	cut_oo_stereo_44KHz.wav
0	23	1	2	0	C	1	1	929	1	Ⴢ	cut_eeuw_stereo_44KHz.wav
0	24	1	1	1	C	2	1	780	1	Ⴢ	cut_ee_stereo_44KHz.wav
0	25	1	2	0	C	2	0	1239	0	Ⴢ	cut_eeuw_stereo_44KHz.wav
0	26	1	1	1	C	2	1	741	1	Ⴢ	cut_ee_stereo_44KHz.wav
0	27	2	4	0	C	1	1	857	1	Ⴞ	cut_g_stereo_44KHz.wav
0	28	2	3	1	C	2	1	752	1	Ⴞ	cut_oo_stereo_44KHz.wav
0	29	2	4	0	C	1	1	805	1	Ⴞ	cut_g_stereo_44KHz.wav
0	30	1	2	0	C	1	1	791	1	Ⴢ	cut_eeuw_stereo_44KHz.wav
avg_resp = 860
1	1	2	1	0	C	2	0	1090	0	Ⴡ	cut_oei_stereo_44KHz.wav
1	2	4	4	2	I	1	0	1108	0	Ⴃ	cut_ei_stereo_44KHz.wav
1	3	3	4	2	I	1	0	881	1	Ⴟ	cut_ei_stereo_44KHz.wav
1	4	1	1	1	C	2	1	990	1	Ⴂ	cut_oei_stereo_44KHz.wav
1	5	2	2	1	C	2	1	1426	1	Ⴡ	cut_r_stereo_44KHz.wav
1	6	1	2	0	C	1	1	810	1	Ⴂ	cut_r_stereo_44KHz.wav
1	7	3	3	2	I	2	0	790	0	Ⴟ	cut_ui_stereo_44KHz.wav
1	8	4	3	2	I	1	0	784	1	Ⴃ	cut_ui_stereo_44KHz.wav
1	9	2	2	1	C	1	0	1384	0	Ⴡ	cut_r_stereo_44KHz.wav
1	10	4	3	2	I	2	0	899	0	Ⴃ	cut_ui_stereo_44KHz.wav
1	11	1	2	0	C	2	0	1081	0	Ⴂ	cut_r_stereo_44KHz.wav
1	12	3	3	2	I	2	0	959	1	Ⴟ	cut_ui_stereo_44KHz.wav
1	13	2	1	0	C	1	1	770	1	Ⴡ	cut_oei_stereo_44KHz.wav
1	14	1	1	1	C	2	1	676	1	Ⴂ	cut_oei_stereo_44KHz.wav
1	15	3	4	2	I	1	0	731	0	Ⴟ	cut_ei_stereo_44KHz.wav
1	16	4	4	2	I	1	0	767	0	Ⴃ	cut_ei_stereo_44KHz.wav
1	17	1	1	1	C	1	0	1499	0	Ⴂ	cut_oei_stereo_44KHz.wav
1	18	3	4	2	I	1	0	863	0	Ⴟ	cut_ei_stereo_44KHz.wav
1	19	2	1	0	C	2	0	894	0	Ⴡ	cut_oei_stereo_44KHz.wav
1	20	4	3	2	I	1	0	727	1	Ⴃ	cut_ui_stereo_44KHz.wav
1	21	2	2	1	C	1	0	777	0	Ⴡ	cut_r_stereo_44KHz.wav
1	22	1	2	0	C	1	1	726	1	Ⴂ	cut_r_stereo_44KHz.wav
1	23	4	4	2	I	2	0	694	1	Ⴃ	cut_ei_stereo_44KHz.wav
1	24	3	3	2	I	1	0	965	1	Ⴟ	cut_ui_stereo_44KHz.wav
1	25	1	2	0	C	1	1	1071	1	Ⴂ	cut_r_stereo_44KHz.wav
1	26	3	4	2	I	1	0	862	0	Ⴟ	cut_ei_stereo_44KHz.wav
1	27	4	4	2	I	2	0	581	0	Ⴃ	cut_ei_stereo_44KHz.wav
1	28	2	2	1	C	1	0	895	0	Ⴡ	cut_r_stereo_44KHz.wav
1	29	1	1	1	C	2	1	926	1	Ⴂ	cut_oei_stereo_44KHz.wav
1	30	3	3	2	I	1	0	909	0	Ⴟ	cut_ui_stereo_44KHz.wav
1	31	2	1	0	C	2	0	1027	0	Ⴡ	cut_oei_stereo_44KHz.wav
1	32	4	3	2	I	1	0	655	1	Ⴃ	cut_ui_stereo_44KHz.wav
1	33	2	2	1	C	1	0	632	0	Ⴡ	cut_r_stereo_44KHz.wav
1	34	3	3	2	I	2	0	775	1	Ⴟ	cut_ui_stereo_44KHz.wav
1	35	4	4	2	I	2	0	727	1	Ⴃ	cut_ei_stereo_44KHz.wav
1	36	1	2	0	C	1	1	814	1	Ⴂ	cut_r_stereo_44KHz.wav
1	37	2	1	0	C	2	0	693	0	Ⴡ	cut_oei_stereo_44KHz.wav
1	38	4	3	2	I	1	0	926	0	Ⴃ	cut_ui_stereo_44KHz.wav
1	39	1	1	1	C	2	1	602	1	Ⴂ	cut_oei_stereo_44KHz.wav
1	40	3	4	2	I	1	0	950	0	Ⴟ	cut_ei_stereo_44KHz.wav
1	41	1	2	0	C	1	1	688	1	Ⴂ	cut_r_stereo_44KHz.wav
1	42	3	4	2	I	1	0	735	1	Ⴟ	cut_ei_stereo_44KHz.wav
1	43	4	3	2	I	1	0	780	1	Ⴃ	cut_ui_stereo_44KHz.wav
1	44	2	1	0	C	1	1	508	1	Ⴡ	cut_oei_stereo_44KHz.wav
1	45	3	3	2	I	2	0	756	1	Ⴟ	cut_ui_stereo_44KHz.wav
1	46	2	2	1	C	2	1	594	1	Ⴡ	cut_r_stereo_44KHz.wav
1	47	4	4	2	I	2	0	789	0	Ⴃ	cut_ei_stereo_44KHz.wav
1	48	1	1	1	C	2	1	961	1	Ⴂ	cut_oei_stereo_44KHz.wav
1	49	4	3	2	I	1	0	675	1	Ⴃ	cut_ui_stereo_44KHz.wav
1	50	3	4	2	I	1	0	598	1	Ⴟ	cut_ei_stereo_44KHz.wav
1	51	2	2	1	C	2	1	650	1	Ⴡ	cut_r_stereo_44KHz.wav
1	52	1	1	1	C	1	0	922	0	Ⴂ	cut_oei_stereo_44KHz.wav
1	53	2	1	0	C	2	0	750	0	Ⴡ	cut_oei_stereo_44KHz.wav
1	54	1	2	0	C	1	1	1007	1	Ⴂ	cut_r_stereo_44KHz.wav
1	55	3	3	2	I	2	0	634	0	Ⴟ	cut_ui_stereo_44KHz.wav
1	56	4	4	2	I	2	0	921	0	Ⴃ	cut_ei_stereo_44KHz.wav
1	57	2	2	1	C	1	0	733	0	Ⴡ	cut_r_stereo_44KHz.wav
1	58	3	4	2	I	1	0	624	0	Ⴟ	cut_ei_stereo_44KHz.wav
1	59	4	3	2	I	1	0	594	0	Ⴃ	cut_ui_stereo_44KHz.wav
1	60	1	1	1	C	1	0	470	0	Ⴂ	cut_oei_stereo_44KHz.wav
1	61	2	1	0	C	1	1	569	1	Ⴡ	cut_oei_stereo_44KHz.wav
1	62	1	2	0	C	2	0	759	0	Ⴂ	cut_r_stereo_44KHz.wav
1	63	3	3	2	I	1	0	691	1	Ⴟ	cut_ui_stereo_44KHz.wav
1	64	4	4	2	I	1	0	823	0	Ⴃ	cut_ei_stereo_44KHz.wav
1	65	1	1	1	C	1	0	579	0	Ⴂ	cut_oei_stereo_44KHz.wav
1	66	2	2	1	C	1	0	968	0	Ⴡ	cut_r_stereo_44KHz.wav
1	67	4	3	2	I	2	0	755	1	Ⴃ	cut_ui_stereo_44KHz.wav
1	68	3	3	2	I	1	0	493	1	Ⴟ	cut_ui_stereo_44KHz.wav
1	69	1	2	0	C	1	1	602	1	Ⴂ	cut_r_stereo_44KHz.wav
1	70	3	4	2	I	2	0	754	0	Ⴟ	cut_ei_stereo_44KHz.wav
1	71	4	4	2	I	2	0	535	1	Ⴃ	cut_ei_stereo_44KHz.wav
1	72	2	1	0	C	1	1	1255	1	Ⴡ	cut_oei_stereo_44KHz.wav
1	73	1	1	1	C	2	1	626	1	Ⴂ	cut_oei_stereo_44KHz.wav
1	74	3	4	2	I	1	0	617	0	Ⴟ	cut_ei_stereo_44KHz.wav
1	75	2	1	0	C	1	1	640	1	Ⴡ	cut_oei_stereo_44KHz.wav
1	76	4	3	2	I	2	0	668	1	Ⴃ	cut_ui_stereo_44KHz.wav
1	77	1	2	0	C	1	1	830	1	Ⴂ	cut_r_stereo_44KHz.wav
1	78	3	3	2	I	1	0	1058	0	Ⴟ	cut_ui_stereo_44KHz.wav
1	79	2	2	1	C	2	1	707	1	Ⴡ	cut_r_stereo_44KHz.wav
1	80	4	4	2	I	1	0	881	1	Ⴃ	cut_ei_stereo_44KHz.wav
1	81	1	2	0	C	1	1	619	1	Ⴂ	cut_r_stereo_44KHz.wav
1	82	3	4	2	I	2	0	720	0	Ⴟ	cut_ei_stereo_44KHz.wav
1	83	4	4	2	I	1	0	695	0	Ⴃ	cut_ei_stereo_44KHz.wav
1	84	2	2	1	C	1	0	719	0	Ⴡ	cut_r_stereo_44KHz.wav
1	85	4	3	2	I	1	0	738	1	Ⴃ	cut_ui_stereo_44KHz.wav
1	86	1	1	1	C	1	0	991	0	Ⴂ	cut_oei_stereo_44KHz.wav
1	87	3	3	2	I	2	0	764	0	Ⴟ	cut_ui_stereo_44KHz.wav
1	88	2	1	0	C	1	1	833	1	Ⴡ	cut_oei_stereo_44KHz.wav
1	89	4	3	2	I	1	0	707	0	Ⴃ	cut_ui_stereo_44KHz.wav
1	90	3	4	2	I	1	0	865	0	Ⴟ	cut_ei_stereo_44KHz.wav
1	91	2	2	1	C	1	0	757	0	Ⴡ	cut_r_stereo_44KHz.wav
1	92	1	1	1	C	1	0	766	0	Ⴂ	cut_oei_stereo_44KHz.wav
1	93	4	4	2	I	1	0	969	0	Ⴃ	cut_ei_stereo_44KHz.wav
1	94	2	1	0	C	2	0	590	0	Ⴡ	cut_oei_stereo_44KHz.wav
1	95	3	3	2	I	1	0	892	1	Ⴟ	cut_ui_stereo_44KHz.wav
1	96	1	2	0	C	1	1	537	1	Ⴂ	cut_r_stereo_44KHz.wav
1	97	4	4	2	I	2	0	825	0	Ⴃ	cut_ei_stereo_44KHz.wav
1	98	1	1	1	C	2	1	737	1	Ⴂ	cut_oei_stereo_44KHz.wav
1	99	3	4	2	I	1	0	798	1	Ⴟ	cut_ei_stereo_44KHz.wav
1	100	2	2	1	C	2	1	728	1	Ⴡ	cut_r_stereo_44KHz.wav
1	101	3	3	2	I	1	0	723	1	Ⴟ	cut_ui_stereo_44KHz.wav
1	102	2	1	0	C	1	1	822	1	Ⴡ	cut_oei_stereo_44KHz.wav
1	103	4	3	2	I	1	0	809	0	Ⴃ	cut_ui_stereo_44KHz.wav
1	104	1	2	0	C	1	1	875	1	Ⴂ	cut_r_stereo_44KHz.wav
1	105	3	4	2	I	1	0	693	0	Ⴟ	cut_ei_stereo_44KHz.wav
1	106	1	2	0	C	1	1	509	1	Ⴂ	cut_r_stereo_44KHz.wav
1	107	4	3	2	I	1	0	654	1	Ⴃ	cut_ui_stereo_44KHz.wav
1	108	2	2	1	C	2	1	619	1	Ⴡ	cut_r_stereo_44KHz.wav
1	109	3	3	2	I	1	0	708	0	Ⴟ	cut_ui_stereo_44KHz.wav
1	110	4	4	2	I	1	0	893	1	Ⴃ	cut_ei_stereo_44KHz.wav
1	111	1	1	1	C	2	1	696	1	Ⴂ	cut_oei_stereo_44KHz.wav
1	112	2	1	0	C	2	0	531	0	Ⴡ	cut_oei_stereo_44KHz.wav
1	113	4	4	2	I	1	0	532	1	Ⴃ	cut_ei_stereo_44KHz.wav
1	114	3	4	2	I	1	0	555	1	Ⴟ	cut_ei_stereo_44KHz.wav
1	115	2	1	0	C	1	1	1173	1	Ⴡ	cut_oei_stereo_44KHz.wav
1	116	1	1	1	C	2	1	719	1	Ⴂ	cut_oei_stereo_44KHz.wav
1	117	3	3	2	I	1	0	876	1	Ⴟ	cut_ui_stereo_44KHz.wav
1	118	2	2	1	C	2	1	728	1	Ⴡ	cut_r_stereo_44KHz.wav
1	119	1	2	0	C	1	1	831	1	Ⴂ	cut_r_stereo_44KHz.wav
1	120	4	3	2	I	1	0	519	0	Ⴃ	cut_ui_stereo_44KHz.wav
1	121	1	1	1	C	2	1	621	1	Ⴂ	cut_oei_stereo_44KHz.wav
1	122	3	3	2	I	1	0	546	0	Ⴟ	cut_ui_stereo_44KHz.wav
1	123	2	2	1	C	2	1	744	1	Ⴡ	cut_r_stereo_44KHz.wav
1	124	4	4	2	I	1	0	618	1	Ⴃ	cut_ei_stereo_44KHz.wav
1	125	2	1	0	C	2	0	728	0	Ⴡ	cut_oei_stereo_44KHz.wav
1	126	4	3	2	I	1	0	491	0	Ⴃ	cut_ui_stereo_44KHz.wav
1	127	3	4	2	I	1	0	588	1	Ⴟ	cut_ei_stereo_44KHz.wav
1	128	1	2	0	C	1	1	653	1	Ⴂ	cut_r_stereo_44KHz.wav
1	129	2	2	1	C	2	1	566	1	Ⴡ	cut_r_stereo_44KHz.wav
1	130	1	1	1	C	2	1	619	1	Ⴂ	cut_oei_stereo_44KHz.wav
1	131	4	3	2	I	1	0	501	0	Ⴃ	cut_ui_stereo_44KHz.wav
1	132	3	4	2	I	1	0	543	0	Ⴟ	cut_ei_stereo_44KHz.wav
1	133	4	4	2	I	1	0	587	0	Ⴃ	cut_ei_stereo_44KHz.wav
1	134	1	2	0	C	1	1	753	1	Ⴂ	cut_r_stereo_44KHz.wav
1	135	2	1	0	C	2	0	531	0	Ⴡ	cut_oei_stereo_44KHz.wav
1	136	3	3	2	I	2	0	787	1	Ⴟ	cut_ui_stereo_44KHz.wav
1	137	1	1	1	C	1	0	679	0	Ⴂ	cut_oei_stereo_44KHz.wav
1	138	3	3	2	I	1	0	974	1	Ⴟ	cut_ui_stereo_44KHz.wav
1	139	4	3	2	I	2	0	781	0	Ⴃ	cut_ui_stereo_44KHz.wav
1	140	2	2	1	C	2	1	912	1	Ⴡ	cut_r_stereo_44KHz.wav
1	141	1	2	0	C	1	1	528	1	Ⴂ	cut_r_stereo_44KHz.wav
1	142	2	1	0	C	1	1	893	1	Ⴡ	cut_oei_stereo_44KHz.wav
1	143	3	4	2	I	1	0	731	1	Ⴟ	cut_ei_stereo_44KHz.wav
1	144	4	4	2	I	2	0	809	1	Ⴃ	cut_ei_stereo_44KHz.wav
1	145	3	3	2	I	2	0	677	1	Ⴟ	cut_ui_stereo_44KHz.wav
1	146	2	1	0	C	1	1	683	1	Ⴡ	cut_oei_stereo_44KHz.wav
1	147	4	4	2	I	1	0	678	1	Ⴃ	cut_ei_stereo_44KHz.wav
1	148	1	1	1	C	2	1	631	1	Ⴂ	cut_oei_stereo_44KHz.wav
1	149	2	2	1	C	1	0	1112	0	Ⴡ	cut_r_stereo_44KHz.wav
1	150	1	2	0	C	1	1	461	1	Ⴂ	cut_r_stereo_44KHz.wav
1	151	3	4	2	I	1	0	698	1	Ⴟ	cut_ei_stereo_44KHz.wav
1	152	4	3	2	I	1	0	726	0	Ⴃ	cut_ui_stereo_44KHz.wav
1	153	1	1	1	C	2	1	628	1	Ⴂ	cut_oei_stereo_44KHz.wav
1	154	3	4	2	I	1	0	807	0	Ⴟ	cut_ei_stereo_44KHz.wav
1	155	2	1	0	C	1	1	903	1	Ⴡ	cut_oei_stereo_44KHz.wav
1	156	4	4	2	I	1	0	572	0	Ⴃ	cut_ei_stereo_44KHz.wav
1	157	1	2	0	C	1	1	643	1	Ⴂ	cut_r_stereo_44KHz.wav
1	158	2	2	1	C	2	1	826	1	Ⴡ	cut_r_stereo_44KHz.wav
1	159	3	3	2	I	1	0	917	0	Ⴟ	cut_ui_stereo_44KHz.wav
1	160	4	3	2	I	1	0	583	1	Ⴃ	cut_ui_stereo_44KHz.wav
1	161	1	1	1	C	2	1	739	1	Ⴂ	cut_oei_stereo_44KHz.wav
1	162	4	4	2	I	2	0	981	1	Ⴃ	cut_ei_stereo_44KHz.wav
1	163	3	3	2	I	1	0	985	0	Ⴟ	cut_ui_stereo_44KHz.wav
1	164	2	1	0	C	1	1	1230	1	Ⴡ	cut_oei_stereo_44KHz.wav
1	165	4	3	2	I	1	0	758	1	Ⴃ	cut_ui_stereo_44KHz.wav
1	166	1	2	0	C	1	1	668	1	Ⴂ	cut_r_stereo_44KHz.wav
1	167	2	2	1	C	2	1	664	1	Ⴡ	cut_r_stereo_44KHz.wav
1	168	3	4	2	I	2	0	706	0	Ⴟ	cut_ei_stereo_44KHz.wav
1	169	2	2	1	C	1	0	922	0	Ⴡ	cut_r_stereo_44KHz.wav
1	170	4	4	2	I	1	0	1056	0	Ⴃ	cut_ei_stereo_44KHz.wav
1	171	3	3	2	I	1	0	1124	1	Ⴟ	cut_ui_stereo_44KHz.wav
1	172	1	1	1	C	2	1	806	1	Ⴂ	cut_oei_stereo_44KHz.wav
1	173	3	4	2	I	2	0	630	0	Ⴟ	cut_ei_stereo_44KHz.wav
1	174	4	3	2	I	1	0	588	0	Ⴃ	cut_ui_stereo_44KHz.wav
1	175	1	2	0	C	1	1	593	1	Ⴂ	cut_r_stereo_44KHz.wav
1	176	2	1	0	C	1	1	887	1	Ⴡ	cut_oei_stereo_44KHz.wav
1	177	4	3	2	I	1	0	785	1	Ⴃ	cut_ui_stereo_44KHz.wav
1	178	2	1	0	C	1	1	933	1	Ⴡ	cut_oei_stereo_44KHz.wav
1	179	3	4	2	I	1	0	1040	1	Ⴟ	cut_ei_stereo_44KHz.wav
1	180	1	2	0	C	1	1	624	1	Ⴂ	cut_r_stereo_44KHz.wav
1	181	2	2	1	C	2	1	623	1	Ⴡ	cut_r_stereo_44KHz.wav
1	182	1	1	1	C	2	1	583	1	Ⴂ	cut_oei_stereo_44KHz.wav
1	183	4	4	2	I	1	0	853	1	Ⴃ	cut_ei_stereo_44KHz.wav
1	184	3	3	2	I	2	0	816	0	Ⴟ	cut_ui_stereo_44KHz.wav
1	185	1	2	0	C	1	1	581	1	Ⴂ	cut_r_stereo_44KHz.wav
1	186	4	3	2	I	1	0	817	0	Ⴃ	cut_ui_stereo_44KHz.wav
1	187	3	4	2	I	1	0	844	1	Ⴟ	cut_ei_stereo_44KHz.wav
1	188	2	1	0	C	2	0	725	0	Ⴡ	cut_oei_stereo_44KHz.wav
1	189	4	4	2	I	1	0	891	0	Ⴃ	cut_ei_stereo_44KHz.wav
1	190	2	2	1	C	2	1	877	1	Ⴡ	cut_r_stereo_44KHz.wav
1	191	1	1	1	C	2	1	824	1	Ⴂ	cut_oei_stereo_44KHz.wav
1	192	3	3	2	I	2	0	1109	1	Ⴟ	cut_ui_stereo_44KHz.wav
1	193	4	4	2	I	2	0	589	1	Ⴃ	cut_ei_stereo_44KHz.wav
1	194	1	1	1	C	2	1	638	1	Ⴂ	cut_oei_stereo_44KHz.wav
1	195	2	1	0	C	1	1	667	1	Ⴡ	cut_oei_stereo_44KHz.wav
1	196	3	3	2	I	2	0	647	1	Ⴟ	cut_ui_stereo_44KHz.wav
1	197	4	3	2	I	2	0	664	1	Ⴃ	cut_ui_stereo_44KHz.wav
1	198	2	2	1	C	2	1	712	1	Ⴡ	cut_r_stereo_44KHz.wav
1	199	3	4	2	I	1	0	615	0	Ⴟ	cut_ei_stereo_44KHz.wav
1	200	1	2	0	C	1	1	891	1	Ⴂ	cut_r_stereo_44KHz.wav
