block	trial	Vstim	Astim	match	C/I	resp	result	RT	fb	V-file	A-file
LR

0	1	1	1	1	C	0	0	0	0	Ⴢ	cut_g_stereo_44KHz.wav
0	2	1	2	0	C	0	0	0	0	Ⴢ	cut_ee_stereo_44KHz.wav
0	3	2	4	0	C	0	0	0	0	Ⴞ	cut_eeuw_stereo_44KHz.wav
0	4	2	3	1	C	0	0	0	0	Ⴞ	cut_oo_stereo_44KHz.wav
0	5	2	3	1	C	0	0	0	0	Ⴞ	cut_oo_stereo_44KHz.wav
0	6	1	2	0	C	0	0	0	0	Ⴢ	cut_ee_stereo_44KHz.wav
0	7	2	4	0	C	2	0	876	0	Ⴞ	cut_eeuw_stereo_44KHz.wav
0	8	1	1	1	C	1	0	1353	0	Ⴢ	cut_g_stereo_44KHz.wav
0	9	1	1	1	C	2	1	1334	1	Ⴢ	cut_g_stereo_44KHz.wav
0	10	2	3	1	C	1	0	1108	0	Ⴞ	cut_oo_stereo_44KHz.wav
0	11	1	2	0	C	1	1	1199	1	Ⴢ	cut_ee_stereo_44KHz.wav
0	12	2	4	0	C	2	0	1071	0	Ⴞ	cut_eeuw_stereo_44KHz.wav
0	13	2	4	0	C	2	0	915	0	Ⴞ	cut_eeuw_stereo_44KHz.wav
0	14	2	3	1	C	1	0	983	0	Ⴞ	cut_oo_stereo_44KHz.wav
0	15	1	1	1	C	2	1	1019	1	Ⴢ	cut_g_stereo_44KHz.wav
0	16	1	2	0	C	1	1	982	1	Ⴢ	cut_ee_stereo_44KHz.wav
0	17	2	3	1	C	2	1	926	1	Ⴞ	cut_oo_stereo_44KHz.wav
0	18	1	1	1	C	1	0	1498	0	Ⴢ	cut_g_stereo_44KHz.wav
0	19	2	4	0	C	1	1	1481	1	Ⴞ	cut_eeuw_stereo_44KHz.wav
0	20	1	2	0	C	1	1	1398	1	Ⴢ	cut_ee_stereo_44KHz.wav
0	21	1	1	1	C	2	1	1114	1	Ⴢ	cut_g_stereo_44KHz.wav
0	22	1	2	0	C	1	1	977	1	Ⴢ	cut_ee_stereo_44KHz.wav
0	23	2	4	0	C	1	1	1435	1	Ⴞ	cut_eeuw_stereo_44KHz.wav
0	24	2	3	1	C	2	1	1964	1	Ⴞ	cut_oo_stereo_44KHz.wav
0	25	2	3	1	C	2	1	1461	1	Ⴞ	cut_oo_stereo_44KHz.wav
0	26	2	4	0	C	1	1	1543	1	Ⴞ	cut_eeuw_stereo_44KHz.wav
0	27	1	2	0	C	1	1	934	1	Ⴢ	cut_ee_stereo_44KHz.wav
0	28	1	1	1	C	2	1	962	1	Ⴢ	cut_g_stereo_44KHz.wav
0	29	2	4	0	C	2	0	1088	0	Ⴞ	cut_eeuw_stereo_44KHz.wav
0	30	2	3	1	C	2	1	1219	1	Ⴞ	cut_oo_stereo_44KHz.wav
avg_resp = 1247
1	1	2	2	1	C	1	0	1616	0	Ⴖ	cut_f_stereo_44KHz.wav
1	2	1	2	0	C	1	1	1836	1	Ⴐ	cut_f_stereo_44KHz.wav
1	3	4	3	2	I	1	0	1822	0	Ⴉ	cut_s_stereo_44KHz.wav
1	4	3	4	2	I	1	0	1479	0	Ⴔ	cut_ei_stereo_44KHz.wav
1	5	4	4	2	I	2	0	921	0	Ⴉ	cut_ei_stereo_44KHz.wav
1	6	3	3	2	I	2	0	1504	1	Ⴔ	cut_s_stereo_44KHz.wav
1	7	1	1	1	C	1	0	1903	0	Ⴐ	cut_j_stereo_44KHz.wav
1	8	2	1	0	C	1	1	1689	1	Ⴖ	cut_j_stereo_44KHz.wav
1	9	4	3	2	I	2	0	1917	0	Ⴉ	cut_s_stereo_44KHz.wav
1	10	3	3	2	I	2	0	1442	0	Ⴔ	cut_s_stereo_44KHz.wav
1	11	1	1	1	C	2	1	1244	1	Ⴐ	cut_j_stereo_44KHz.wav
1	12	2	2	1	C	0	0	0	0	Ⴖ	cut_f_stereo_44KHz.wav
1	13	4	4	2	I	2	0	1321	0	Ⴉ	cut_ei_stereo_44KHz.wav
1	14	1	2	0	C	1	1	1463	1	Ⴐ	cut_f_stereo_44KHz.wav
1	15	3	4	2	I	2	0	1415	1	Ⴔ	cut_ei_stereo_44KHz.wav
1	16	2	1	0	C	1	1	1041	1	Ⴖ	cut_j_stereo_44KHz.wav
1	17	4	3	2	I	2	0	1182	1	Ⴉ	cut_s_stereo_44KHz.wav
1	18	2	1	0	C	1	1	1033	1	Ⴖ	cut_j_stereo_44KHz.wav
1	19	3	3	2	I	2	0	1177	0	Ⴔ	cut_s_stereo_44KHz.wav
1	20	1	1	1	C	2	1	1004	1	Ⴐ	cut_j_stereo_44KHz.wav
1	21	3	4	2	I	2	0	1494	1	Ⴔ	cut_ei_stereo_44KHz.wav
1	22	4	4	2	I	1	0	924	1	Ⴉ	cut_ei_stereo_44KHz.wav
1	23	1	2	0	C	1	1	1426	1	Ⴐ	cut_f_stereo_44KHz.wav
1	24	2	2	1	C	2	1	1052	1	Ⴖ	cut_f_stereo_44KHz.wav
1	25	3	4	2	I	1	0	1173	1	Ⴔ	cut_ei_stereo_44KHz.wav
1	26	1	1	1	C	2	1	1142	1	Ⴐ	cut_j_stereo_44KHz.wav
1	27	4	4	2	I	2	0	1255	0	Ⴉ	cut_ei_stereo_44KHz.wav
1	28	2	2	1	C	1	0	960	0	Ⴖ	cut_f_stereo_44KHz.wav
1	29	1	2	0	C	1	1	1437	1	Ⴐ	cut_f_stereo_44KHz.wav
1	30	3	3	2	I	2	0	1489	1	Ⴔ	cut_s_stereo_44KHz.wav
1	31	2	1	0	C	2	0	1249	0	Ⴖ	cut_j_stereo_44KHz.wav
1	32	4	3	2	I	1	0	1186	1	Ⴉ	cut_s_stereo_44KHz.wav
1	33	2	1	0	C	1	1	1243	1	Ⴖ	cut_j_stereo_44KHz.wav
1	34	1	2	0	C	1	1	991	1	Ⴐ	cut_f_stereo_44KHz.wav
1	35	3	3	2	I	2	0	1193	0	Ⴔ	cut_s_stereo_44KHz.wav
1	36	4	4	2	I	1	0	899	1	Ⴉ	cut_ei_stereo_44KHz.wav
1	37	1	1	1	C	2	1	1005	1	Ⴐ	cut_j_stereo_44KHz.wav
1	38	4	3	2	I	1	0	1462	0	Ⴉ	cut_s_stereo_44KHz.wav
1	39	2	2	1	C	1	0	1194	0	Ⴖ	cut_f_stereo_44KHz.wav
1	40	3	4	2	I	2	0	1275	0	Ⴔ	cut_ei_stereo_44KHz.wav
1	41	4	4	2	I	2	0	1566	1	Ⴉ	cut_ei_stereo_44KHz.wav
1	42	3	4	2	I	1	0	1129	0	Ⴔ	cut_ei_stereo_44KHz.wav
1	43	1	1	1	C	2	1	1080	1	Ⴐ	cut_j_stereo_44KHz.wav
1	44	2	2	1	C	1	0	1429	0	Ⴖ	cut_f_stereo_44KHz.wav
1	45	4	3	2	I	2	0	1119	1	Ⴉ	cut_s_stereo_44KHz.wav
1	46	1	2	0	C	1	1	888	1	Ⴐ	cut_f_stereo_44KHz.wav
1	47	2	1	0	C	1	1	883	1	Ⴖ	cut_j_stereo_44KHz.wav
1	48	3	3	2	I	2	0	1137	0	Ⴔ	cut_s_stereo_44KHz.wav
1	49	4	3	2	I	2	0	1407	0	Ⴉ	cut_s_stereo_44KHz.wav
1	50	1	2	0	C	1	1	1012	1	Ⴐ	cut_f_stereo_44KHz.wav
1	51	2	2	1	C	2	1	1445	1	Ⴖ	cut_f_stereo_44KHz.wav
1	52	3	4	2	I	1	0	1163	1	Ⴔ	cut_ei_stereo_44KHz.wav
1	53	2	1	0	C	1	1	1380	1	Ⴖ	cut_j_stereo_44KHz.wav
1	54	4	4	2	I	2	0	863	1	Ⴉ	cut_ei_stereo_44KHz.wav
1	55	1	1	1	C	2	1	1092	1	Ⴐ	cut_j_stereo_44KHz.wav
1	56	3	3	2	I	1	0	1297	0	Ⴔ	cut_s_stereo_44KHz.wav
1	57	1	2	0	C	1	1	1018	1	Ⴐ	cut_f_stereo_44KHz.wav
1	58	3	4	2	I	2	0	1458	1	Ⴔ	cut_ei_stereo_44KHz.wav
1	59	4	3	2	I	1	0	1459	0	Ⴉ	cut_s_stereo_44KHz.wav
1	60	2	1	0	C	1	1	1181	1	Ⴖ	cut_j_stereo_44KHz.wav
1	61	4	4	2	I	1	0	1299	0	Ⴉ	cut_ei_stereo_44KHz.wav
1	62	1	1	1	C	2	1	1220	1	Ⴐ	cut_j_stereo_44KHz.wav
1	63	2	2	1	C	1	0	958	0	Ⴖ	cut_f_stereo_44KHz.wav
1	64	3	3	2	I	2	0	1172	1	Ⴔ	cut_s_stereo_44KHz.wav
1	65	1	1	1	C	2	1	909	1	Ⴐ	cut_j_stereo_44KHz.wav
1	66	2	1	0	C	1	1	1780	1	Ⴖ	cut_j_stereo_44KHz.wav
1	67	4	4	2	I	1	0	948	1	Ⴉ	cut_ei_stereo_44KHz.wav
1	68	3	4	2	I	2	0	937	1	Ⴔ	cut_ei_stereo_44KHz.wav
1	69	1	2	0	C	1	1	1397	1	Ⴐ	cut_f_stereo_44KHz.wav
1	70	4	3	2	I	2	0	1334	0	Ⴉ	cut_s_stereo_44KHz.wav
1	71	3	3	2	I	1	0	998	1	Ⴔ	cut_s_stereo_44KHz.wav
1	72	2	2	1	C	2	1	1461	1	Ⴖ	cut_f_stereo_44KHz.wav
1	73	1	1	1	C	2	1	935	1	Ⴐ	cut_j_stereo_44KHz.wav
1	74	3	3	2	I	2	0	1193	0	Ⴔ	cut_s_stereo_44KHz.wav
1	75	4	3	2	I	2	0	1087	1	Ⴉ	cut_s_stereo_44KHz.wav
1	76	2	2	1	C	1	0	960	0	Ⴖ	cut_f_stereo_44KHz.wav
1	77	4	4	2	I	1	0	1024	1	Ⴉ	cut_ei_stereo_44KHz.wav
1	78	2	1	0	C	1	1	1208	1	Ⴖ	cut_j_stereo_44KHz.wav
1	79	1	2	0	C	1	1	930	1	Ⴐ	cut_f_stereo_44KHz.wav
1	80	3	4	2	I	2	0	942	0	Ⴔ	cut_ei_stereo_44KHz.wav
1	81	1	2	0	C	1	1	1267	1	Ⴐ	cut_f_stereo_44KHz.wav
1	82	3	3	2	I	1	0	1545	0	Ⴔ	cut_s_stereo_44KHz.wav
1	83	4	3	2	I	1	0	903	1	Ⴉ	cut_s_stereo_44KHz.wav
1	84	2	2	1	C	2	1	1344	1	Ⴖ	cut_f_stereo_44KHz.wav
1	85	1	1	1	C	2	1	1052	1	Ⴐ	cut_j_stereo_44KHz.wav
1	86	3	4	2	I	1	0	874	0	Ⴔ	cut_ei_stereo_44KHz.wav
1	87	4	4	2	I	1	0	847	1	Ⴉ	cut_ei_stereo_44KHz.wav
1	88	2	1	0	C	1	1	991	1	Ⴖ	cut_j_stereo_44KHz.wav
1	89	3	4	2	I	2	0	1001	0	Ⴔ	cut_ei_stereo_44KHz.wav
1	90	4	3	2	I	2	0	1138	0	Ⴉ	cut_s_stereo_44KHz.wav
1	91	1	2	0	C	1	1	1015	1	Ⴐ	cut_f_stereo_44KHz.wav
1	92	2	1	0	C	1	1	939	1	Ⴖ	cut_j_stereo_44KHz.wav
1	93	1	1	1	C	2	1	995	1	Ⴐ	cut_j_stereo_44KHz.wav
1	94	3	3	2	I	1	0	1293	0	Ⴔ	cut_s_stereo_44KHz.wav
1	95	4	4	2	I	1	0	909	1	Ⴉ	cut_ei_stereo_44KHz.wav
1	96	2	2	1	C	1	0	992	0	Ⴖ	cut_f_stereo_44KHz.wav
1	97	1	1	1	C	2	1	884	1	Ⴐ	cut_j_stereo_44KHz.wav
1	98	4	3	2	I	1	0	1126	0	Ⴉ	cut_s_stereo_44KHz.wav
1	99	2	1	0	C	1	1	1257	1	Ⴖ	cut_j_stereo_44KHz.wav
1	100	3	3	2	I	2	0	1209	1	Ⴔ	cut_s_stereo_44KHz.wav
1	101	4	4	2	I	1	0	816	0	Ⴉ	cut_ei_stereo_44KHz.wav
1	102	1	2	0	C	1	1	1118	1	Ⴐ	cut_f_stereo_44KHz.wav
1	103	2	2	1	C	2	1	807	1	Ⴖ	cut_f_stereo_44KHz.wav
1	104	3	4	2	I	1	0	1389	0	Ⴔ	cut_ei_stereo_44KHz.wav
1	105	1	1	1	C	2	1	877	1	Ⴐ	cut_j_stereo_44KHz.wav
1	106	2	2	1	C	1	0	972	0	Ⴖ	cut_f_stereo_44KHz.wav
1	107	4	3	2	I	2	0	984	1	Ⴉ	cut_s_stereo_44KHz.wav
1	108	3	4	2	I	1	0	1050	1	Ⴔ	cut_ei_stereo_44KHz.wav
1	109	1	2	0	C	1	1	1181	1	Ⴐ	cut_f_stereo_44KHz.wav
1	110	4	4	2	I	1	0	1313	0	Ⴉ	cut_ei_stereo_44KHz.wav
1	111	2	1	0	C	1	1	967	1	Ⴖ	cut_j_stereo_44KHz.wav
1	112	3	3	2	I	1	0	1470	0	Ⴔ	cut_s_stereo_44KHz.wav
1	113	4	3	2	I	2	0	914	0	Ⴉ	cut_s_stereo_44KHz.wav
1	114	2	2	1	C	2	1	1181	1	Ⴖ	cut_f_stereo_44KHz.wav
1	115	1	1	1	C	2	1	757	1	Ⴐ	cut_j_stereo_44KHz.wav
1	116	3	3	2	I	2	0	1028	0	Ⴔ	cut_s_stereo_44KHz.wav
1	117	4	4	2	I	1	0	997	1	Ⴉ	cut_ei_stereo_44KHz.wav
1	118	1	2	0	C	2	0	879	0	Ⴐ	cut_f_stereo_44KHz.wav
1	119	3	4	2	I	2	0	1118	0	Ⴔ	cut_ei_stereo_44KHz.wav
1	120	2	1	0	C	1	1	1345	1	Ⴖ	cut_j_stereo_44KHz.wav
1	121	1	2	0	C	1	1	1547	1	Ⴐ	cut_f_stereo_44KHz.wav
1	122	3	4	2	I	1	0	621	0	Ⴔ	cut_ei_stereo_44KHz.wav
1	123	4	4	2	I	1	0	628	1	Ⴉ	cut_ei_stereo_44KHz.wav
1	124	2	1	0	C	1	1	1003	1	Ⴖ	cut_j_stereo_44KHz.wav
1	125	1	1	1	C	2	1	790	1	Ⴐ	cut_j_stereo_44KHz.wav
1	126	2	2	1	C	2	1	1282	1	Ⴖ	cut_f_stereo_44KHz.wav
1	127	3	3	2	I	1	0	1376	1	Ⴔ	cut_s_stereo_44KHz.wav
1	128	4	3	2	I	2	0	989	0	Ⴉ	cut_s_stereo_44KHz.wav
1	129	1	2	0	C	1	1	1468	1	Ⴐ	cut_f_stereo_44KHz.wav
1	130	2	1	0	C	1	1	1083	1	Ⴖ	cut_j_stereo_44KHz.wav
1	131	4	4	2	I	1	0	880	1	Ⴉ	cut_ei_stereo_44KHz.wav
1	132	3	4	2	I	2	0	916	1	Ⴔ	cut_ei_stereo_44KHz.wav
1	133	1	1	1	C	2	1	939	1	Ⴐ	cut_j_stereo_44KHz.wav
1	134	4	3	2	I	2	0	1695	1	Ⴉ	cut_s_stereo_44KHz.wav
1	135	3	3	2	I	1	0	1384	0	Ⴔ	cut_s_stereo_44KHz.wav
1	136	2	2	1	C	2	1	1498	1	Ⴖ	cut_f_stereo_44KHz.wav
1	137	4	3	2	I	2	0	1566	0	Ⴉ	cut_s_stereo_44KHz.wav
1	138	1	1	1	C	2	1	1030	1	Ⴐ	cut_j_stereo_44KHz.wav
1	139	2	1	0	C	1	1	1114	1	Ⴖ	cut_j_stereo_44KHz.wav
1	140	3	4	2	I	2	0	1143	0	Ⴔ	cut_ei_stereo_44KHz.wav
1	141	4	4	2	I	1	0	859	1	Ⴉ	cut_ei_stereo_44KHz.wav
1	142	3	3	2	I	1	0	997	0	Ⴔ	cut_s_stereo_44KHz.wav
1	143	1	2	0	C	1	1	1361	1	Ⴐ	cut_f_stereo_44KHz.wav
1	144	2	2	1	C	2	1	1017	1	Ⴖ	cut_f_stereo_44KHz.wav
1	145	3	4	2	I	1	0	1261	1	Ⴔ	cut_ei_stereo_44KHz.wav
1	146	2	2	1	C	1	0	1741	0	Ⴖ	cut_f_stereo_44KHz.wav
1	147	4	3	2	I	2	0	1401	1	Ⴉ	cut_s_stereo_44KHz.wav
1	148	1	2	0	C	1	1	1039	1	Ⴐ	cut_f_stereo_44KHz.wav
1	149	2	1	0	C	1	1	1060	1	Ⴖ	cut_j_stereo_44KHz.wav
1	150	1	1	1	C	1	0	1099	0	Ⴐ	cut_j_stereo_44KHz.wav
1	151	3	3	2	I	1	0	1578	1	Ⴔ	cut_s_stereo_44KHz.wav
1	152	4	4	2	I	1	0	830	0	Ⴉ	cut_ei_stereo_44KHz.wav
1	153	2	1	0	C	1	1	1826	1	Ⴖ	cut_j_stereo_44KHz.wav
1	154	3	4	2	I	1	0	1167	0	Ⴔ	cut_ei_stereo_44KHz.wav
1	155	1	2	0	C	1	1	1008	1	Ⴐ	cut_f_stereo_44KHz.wav
1	156	4	4	2	I	1	0	1142	0	Ⴉ	cut_ei_stereo_44KHz.wav
1	157	2	2	1	C	2	1	1491	1	Ⴖ	cut_f_stereo_44KHz.wav
1	158	3	3	2	I	1	0	1358	1	Ⴔ	cut_s_stereo_44KHz.wav
1	159	1	1	1	C	2	1	992	1	Ⴐ	cut_j_stereo_44KHz.wav
1	160	4	3	2	I	2	0	1264	0	Ⴉ	cut_s_stereo_44KHz.wav
1	161	1	1	1	C	2	1	1525	1	Ⴐ	cut_j_stereo_44KHz.wav
1	162	2	1	0	C	1	1	1373	1	Ⴖ	cut_j_stereo_44KHz.wav
1	163	3	3	2	I	1	0	1291	1	Ⴔ	cut_s_stereo_44KHz.wav
1	164	4	4	2	I	1	0	861	0	Ⴉ	cut_ei_stereo_44KHz.wav
1	165	2	2	1	C	2	1	1444	1	Ⴖ	cut_f_stereo_44KHz.wav
1	166	3	4	2	I	2	0	1305	0	Ⴔ	cut_ei_stereo_44KHz.wav
1	167	4	3	2	I	1	0	1475	1	Ⴉ	cut_s_stereo_44KHz.wav
1	168	1	2	0	C	1	1	1771	1	Ⴐ	cut_f_stereo_44KHz.wav
1	169	4	3	2	I	1	0	1545	1	Ⴉ	cut_s_stereo_44KHz.wav
1	170	3	4	2	I	2	0	1660	1	Ⴔ	cut_ei_stereo_44KHz.wav
1	171	1	1	1	C	2	1	1004	1	Ⴐ	cut_j_stereo_44KHz.wav
1	172	2	1	0	C	2	0	1189	0	Ⴖ	cut_j_stereo_44KHz.wav
1	173	4	4	2	I	1	0	925	1	Ⴉ	cut_ei_stereo_44KHz.wav
1	174	1	2	0	C	1	1	1347	1	Ⴐ	cut_f_stereo_44KHz.wav
1	175	2	2	1	C	2	1	1581	1	Ⴖ	cut_f_stereo_44KHz.wav
1	176	3	3	2	I	1	0	1600	0	Ⴔ	cut_s_stereo_44KHz.wav
1	177	2	2	1	C	1	0	1405	0	Ⴖ	cut_f_stereo_44KHz.wav
1	178	4	4	2	I	1	0	1084	0	Ⴉ	cut_ei_stereo_44KHz.wav
1	179	1	1	1	C	1	0	1342	0	Ⴐ	cut_j_stereo_44KHz.wav
1	180	3	4	2	I	2	0	1247	1	Ⴔ	cut_ei_stereo_44KHz.wav
1	181	2	1	0	C	1	1	1088	1	Ⴖ	cut_j_stereo_44KHz.wav
1	182	1	2	0	C	2	0	909	0	Ⴐ	cut_f_stereo_44KHz.wav
1	183	3	3	2	I	1	0	994	1	Ⴔ	cut_s_stereo_44KHz.wav
1	184	4	3	2	I	2	0	1304	0	Ⴉ	cut_s_stereo_44KHz.wav
1	185	2	1	0	C	1	1	1559	1	Ⴖ	cut_j_stereo_44KHz.wav
1	186	3	3	2	I	1	0	967	1	Ⴔ	cut_s_stereo_44KHz.wav
1	187	4	4	2	I	1	0	992	1	Ⴉ	cut_ei_stereo_44KHz.wav
1	188	1	1	1	C	2	1	934	1	Ⴐ	cut_j_stereo_44KHz.wav
1	189	2	2	1	C	1	0	983	0	Ⴖ	cut_f_stereo_44KHz.wav
1	190	1	2	0	C	1	1	950	1	Ⴐ	cut_f_stereo_44KHz.wav
1	191	3	4	2	I	1	0	980	1	Ⴔ	cut_ei_stereo_44KHz.wav
1	192	4	3	2	I	2	0	989	1	Ⴉ	cut_s_stereo_44KHz.wav
1	193	1	1	1	C	2	1	994	1	Ⴐ	cut_j_stereo_44KHz.wav
1	194	3	3	2	I	1	0	1208	1	Ⴔ	cut_s_stereo_44KHz.wav
1	195	4	3	2	I	2	0	1086	0	Ⴉ	cut_s_stereo_44KHz.wav
1	196	2	2	1	C	1	0	1478	0	Ⴖ	cut_f_stereo_44KHz.wav
1	197	3	4	2	I	1	0	1022	1	Ⴔ	cut_ei_stereo_44KHz.wav
1	198	1	2	0	C	2	0	1007	0	Ⴐ	cut_f_stereo_44KHz.wav
1	199	2	1	0	C	1	1	935	1	Ⴖ	cut_j_stereo_44KHz.wav
1	200	4	4	2	I	1	0	794	0	Ⴉ	cut_ei_stereo_44KHz.wav
