block	trial	vStims	aStim	resp	rt	fb	iti	feedJitter	vSymbols	aFile	stimOnset	respOnset	feedbackOnset
2	1	2	3	2	1	1838	1	1852	1592	I	A	I	w_2_2_loudCheck.wav	practice	practice	practice
2	2	1	2	2	2	1227	1	3200	1066	E	I	I	w_2_2_loudCheck.wav	practice	practice	practice
2	3	2	3	3	2	1089	1	2458	1996	I	A	A	k_2_1_loudCheck.wav	practice	practice	practice
2	4	1	3	1	1	817	1	2134	2130	E	A	E	z_2_2.wav	practice	practice	practice
2	5	2	1	1	2	1722	1	2182	1628	I	E	E	z_2_2.wav	practice	practice	practice
2	6	3	1	3	1	791	1	2350	2619	A	E	A	k_2_1_loudCheck.wav	practice	practice	practice
2	1	1_11	1	1	1607	1	1615	1105	B_L	ki_short_2_1.wav	79442	81049	83085
2	2	5_16	3	1	1505	1	2871	2189	F_Ð	zi_2_2.wav	87988	89493	92728
2	3	11_8	6	1	1984	1	3200	1582	L_Ò	wa_short_2_2.wav	97960	99944	102081
2	4	5_6	3	1	1157	1	2335	2123	F_G	zi_2_2.wav	106438	107595	111097
2	5	11_12	6	1	1259	1	2334	1574	L_Ó	wa_short_2_2.wav	115463	116722	119574
2	6	3_14	2	1	1274	1	2671	1639	D_Î	ka_loudCheck.wav	124275	125549	128448
2	7	1_10	1	2	1446	1	2885	2131	B_K_switched	ki_short_2_1.wav	133364	134810	138032
2	8	6_9	4	2	1461	1	1738	1395	G_J_switched	schl_2_1.wav	141794	143255	145721
2	9	3_8	2	2	1534	1	2986	1380	D_Ò_switched	ka_loudCheck.wav	150733	152267	154648
2	10	1_15	1	2	1073	1	2786	2341	B_Ï_switched	ki_short_2_1.wav	159458	160531	164335
2	11	3_14	2	1	1055	1	3315	1465	D_Î	ka_loudCheck.wav	169680	170735	173669
2	12	11_2	6	2	1340	1	2836	2220	L_C_switched	wa_short_2_2.wav	178527	179867	183283
2	13	10_5	5	1	1997	0	3740	1453	K_F_switched	pf_2_1_loudCheck.wav	189057	191054	193043
2	14	1_10	1	2	1324	1	2586	2324	B_K_switched	ki_short_2_1.wav	197663	198987	202539
2	15	5_2	3	1	1222	1	2632	1592	F_C	zi_2_2.wav	207202	208424	211317
2	16	10_13	5	2	1632	1	3581	1628	K_Í_switched	pf_2_1_loudCheck.wav	216926	218558	221096
2	17	3_9	2	1	1164	1	2670	2754	D_J	ka_loudCheck.wav	225792	226956	231081
2	18	11_16	6	1	1049	1	2134	2130	L_Ð	wa_short_2_2.wav	235249	236298	239916
2	19	6_5	4	2	1207	1	1760	1779	G_F_switched	schl_2_1.wav	243701	244908	248023
2	20	10_12	5	2	1275	1	3114	1146	K_Ó_switched	pf_2_1_loudCheck.wav	253163	254438	256833
2	21	3_8	2	2	1101	1	1889	2035	D_Ò_switched	ka_loudCheck.wav	260747	261848	265313
2	22	5_11	3	1	1094	1	2532	2151	F_L	zi_2_2.wav	269881	270975	274572
2	23	11_1	6	1	1050	1	2954	2582	L_B	wa_short_2_2.wav	279563	280613	284679
2	24	6_7	4	2	1080	1	2678	1289	G_H_switched	schl_2_1.wav	289380	290460	293196
2	25	5_15	3	1	1148	1	2458	1796	F_Ï	zi_2_2.wav	297685	298833	302028
2	26	10_1	5	1	1102	1	2364	1718	K_B	pf_2_1_loudCheck.wav	306417	307519	310675
2	27	11_3	6	1	1086	0	3066	1656	L_D_switched	wa_short_2_2.wav	315777	316863	319973
2	28	6_4	4	1	1094	1	1991	1599	G_Ñ	schl_2_1.wav	323995	325089	328140
2	29	1_10	1	2	2466	1	2503	1320	B_K_switched	ki_short_2_1.wav	332682	335148	336537
2	30	10_7	5	2	1049	1	2720	2422	K_H_switched	pf_2_1_loudCheck.wav	341291	342340	346247
2	31	11_6	6	1	1119	1	2841	1066	L_G	wa_short_2_2.wav	351121	352240	354718
2	32	10_16	5	2	1212	1	2639	1855	K_Ð_switched	pf_2_1_loudCheck.wav	359395	360607	363782
2	33	6_4	4	1	1213	1	2350	1670	G_Ñ	schl_2_1.wav	368164	369377	372372
2	34	10_2	5	1	1494	1	1927	2041	K_C	pf_2_1_loudCheck.wav	376333	377827	380901
2	35	5_15	3	2	949	1	2035	1795	F_Ï_switched	zi_2_2.wav	384967	385916	389297
2	36	1_11	1	1	1646	1	2010	1996	B_L	ki_short_2_1.wav	393333	394979	397857
2	37	6_13	4	1	1114	1	2925	2576	G_Í	schl_2_1.wav	402807	403921	407913
2	38	5_14	3	2	803	1	2219	2155	F_Î_switched	zi_2_2.wav	412161	412964	416851
2	39	11_3	6	1	884	1	2221	2173	L_D	wa_short_2_2.wav	421105	421989	425811
2	40	1_4	1	2	827	1	2466	2898	B_Ñ_switched	ki_short_2_1.wav	430309	431136	435746
2	41	3_1	2	2	1019	1	2911	1654	D_B_switched	ka_loudCheck.wav	440681	441700	444862
2	42	5_9	3	1	1503	1	2269	2602	F_J	zi_2_2.wav	449164	450667	454302
2	43	6_12	4	2	992	1	2182	2924	G_Ó_switched	schl_2_1.wav	458520	459512	463983
2	44	3_13	2	1	762	1	3387	899	D_Í	ka_loudCheck.wav	469401	470163	472836
2	45	6_3	4	2	965	1	2881	1509	G_D_switched	schl_2_1.wav	477754	478719	481787
2	46	3_7	2	1	1074	1	2195	2244	D_H	ka_loudCheck.wav	486011	487085	490781
2	47	1_6	1	2	912	1	2448	2619	B_G_switched	ki_short_2_1.wav	495256	496168	500398
2	48	10_5	5	2	1085	1	1852	2403	K_F_switched	pf_2_1_loudCheck.wav	504286	505371	509224
