block	trial	vStims	aStim	resp	rt	fb	iti	feedJitter	vSymbols	aFile	stimOnset	respOnset	feedbackOnset
2	1	2	3	2	1	1280	1	1852	1592	I	A	I	w_2_2_loudCheck.wav	practice	practice	practice
2	2	1	2	2	1	1298	0	3200	1066	E	I	I	w_2_2_loudCheck.wav	practice	practice	practice
2	3	2	3	3	2	658	1	2458	1996	I	A	A	k_2_1_loudCheck.wav	practice	practice	practice
2	4	1	3	1	1	924	1	2134	2130	E	A	E	z_2_2.wav	practice	practice	practice
2	5	2	1	1	2	1200	1	2182	1628	I	E	E	z_2_2.wav	practice	practice	practice
2	6	3	1	3	1	692	1	2350	2619	A	E	A	k_2_1_loudCheck.wav	practice	practice	practice
2	1	1_11	1	2	1581	0	2350	1574	B_L_switched	ki_short_2_1.wav	79470	81051	83572
2	2	5_16	3	2	1647	1	2010	2602	F_Ð_switched	zi_2_2.wav	87612	89259	92747
2	3	11_8	6	2	1833	1	2885	1320	L_Ò_switched	wa_short_2_2.wav	97657	99490	101522
2	4	5_6	3	1	833	1	2954	1066	F_G	zi_2_2.wav	106493	107326	110086
2	5	11_12	6	1	1342	1	1615	2582	L_Ó	wa_short_2_2.wav	113720	115062	118826
2	6	3_14	2	1	1252	0	2134	1670	D_Î_switched	ka_loudCheck.wav	122989	124241	127184
2	7	1_10	1	2	1512	1	2532	2189	B_K_switched	ki_short_2_1.wav	131735	133247	136470
2	8	6_9	4	2	1593	1	2786	1855	G_J_switched	schl_2_1.wav	141275	142868	145674
2	9	3_8	2	1	807	1	3066	1592	D_Ò	ka_loudCheck.wav	150758	151565	154899
2	10	1_15	1	1	1077	1	1852	2619	B_Ï	ki_short_2_1.wav	158781	159858	163922
2	11	3_14	2	2	956	1	1927	1599	D_Î_switched	ka_loudCheck.wav	167874	168830	172004
2	12	11_2	6	2	1001	1	3581	2130	L_C_switched	wa_short_2_2.wav	177608	178609	182275
2	13	10_5	5	2	1776	1	2925	1289	K_F_switched	pf_2_1_loudCheck.wav	187227	189003	191039
2	14	1_10	1	2	995	1	1991	1656	B_K_switched	ki_short_2_1.wav	195060	196055	199234
2	15	5_2	3	2	1083	1	2221	2576	F_C_switched	zi_2_2.wav	203471	204554	208569
2	16	10_13	5	2	861	0	2871	899	K_Í	pf_2_1_loudCheck.wav	213458	214319	216883
2	17	3_9	2	2	862	1	2720	1795	D_J_switched	ka_loudCheck.wav	221621	222483	225942
2	18	11_16	6	2	1562	1	2035	1628	L_Ð_switched	wa_short_2_2.wav	230005	231567	234157
2	19	6_5	4	1	1707	1	2364	2035	G_F	schl_2_1.wav	238548	240255	243113
2	20	10_12	5	1	1076	1	2335	1395	K_Ó	pf_2_1_loudCheck.wav	247470	248546	251391
2	21	3_8	2	2	783	1	2195	2041	D_Ò_switched	ka_loudCheck.wav	255611	256394	260183
2	22	5_11	3	1	1394	1	2219	2924	F_L	zi_2_2.wav	264419	265813	269867
2	23	11_1	6	2	1026	1	2632	2403	L_B_switched	wa_short_2_2.wav	274521	275547	279454
2	24	6_7	4	1	1076	1	2986	2422	G_H	schl_2_1.wav	284463	285539	289413
2	25	5_15	3	2	1275	1	2182	2151	F_Ï_switched	zi_2_2.wav	293616	294891	298295
2	26	10_1	5	2	686	1	3387	1465	K_B_switched	pf_2_1_loudCheck.wav	303705	304391	307700
2	27	11_3	6	2	935	1	2458	1639	L_D_switched	wa_short_2_2.wav	312180	313115	316339
2	28	6_4	4	1	884	1	2334	2220	G_Ñ	schl_2_1.wav	320689	321573	325436
2	29	1_10	1	1	1306	1	2448	1996	B_K	ki_short_2_1.wav	329906	331212	334448
2	30	10_7	5	1	935	1	2841	2754	K_H	pf_2_1_loudCheck.wav	339317	340252	344610
2	31	11_6	6	1	929	1	3114	1146	L_G	wa_short_2_2.wav	349748	350677	353412
2	32	10_16	5	1	938	1	1760	2341	K_Ð	pf_2_1_loudCheck.wav	357195	358133	362067
2	33	6_4	4	2	900	1	2269	1654	G_Ñ_switched	schl_2_1.wav	366354	367254	370532
2	34	10_2	5	2	951	1	3740	2173	K_C_switched	pf_2_1_loudCheck.wav	376290	377241	380992
2	35	5_15	3	1	1060	1	2836	1453	F_Ï	zi_2_2.wav	385846	386906	389826
2	36	1_11	1	1	991	1	1738	1796	B_L	ki_short_2_1.wav	393582	394573	397897
2	37	6_13	4	2	1935	1	1889	1105	G_Í_switched	schl_2_1.wav	401813	403748	405437
2	38	5_14	3	1	786	1	2881	1582	F_Î	zi_2_2.wav	410348	411134	414480
2	39	11_3	6	2	959	1	2639	2324	L_D_switched	wa_short_2_2.wav	419141	420100	423989
2	40	1_4	1	2	1834	0	3315	1718	B_Ñ	ki_short_2_1.wav	429322	431156	433574
2	41	3_1	2	1	1554	1	2586	1779	D_B	ka_loudCheck.wav	438181	439735	442503
2	42	5_9	3	1	1013	1	2671	2123	F_J	zi_2_2.wav	447201	448214	451849
2	43	6_12	4	2	1722	1	3200	2131	G_Ó_switched	schl_2_1.wav	457067	458789	461730
2	44	3_13	2	1	1005	1	2678	1380	D_Í	ka_loudCheck.wav	466435	467440	470333
2	45	6_3	4	2	928	1	2911	2898	G_D_switched	schl_2_1.wav	475267	476195	480685
2	46	3_7	2	1	1024	1	2503	2155	D_H	ka_loudCheck.wav	485219	486243	489916
2	47	1_6	1	1	863	1	2670	2244	B_G	ki_short_2_1.wav	494605	495468	499375
2	48	10_5	5	1	1268	1	2466	1509	K_F	pf_2_1_loudCheck.wav	503872	505140	507910
