block	trial	vStims	aStim	resp	rt	fb	iti	feedJitter	vSymbols	aFile	stimOnset	respOnset	feedbackOnset
1	1	2	3	2	1	1461	1	1852	1592	R	V	R	e_short_2_2.wav	practice	practice	practice
1	2	1	2	2	2	1179	1	3200	1066	N	R	R	e_short_2_2.wav	practice	practice	practice
1	3	2	3	3	2	821	1	2458	1996	R	V	V	t_2_1_loudCheck.wav	practice	practice	practice
1	4	1	3	1	1	875	1	2134	2130	N	V	N	a_short_2_2.wav	practice	practice	practice
1	5	2	1	1	2	1137	1	2182	1628	R	N	N	a_short_2_2.wav	practice	practice	practice
1	6	3	1	3	1	853	1	2350	2619	V	N	V	t_2_1_loudCheck.wav	practice	practice	practice
1	1	10_14	5	2	2408	1	2632	1582	X_¸_switched	st_2_2_loudCheck.wav	84798	87206	88911
1	2	3_8	2	1	2062	1	1927	1592	Q_¼	un_short_2_1_loudCheck.wav	92860	94922	96984
1	3	11_4	6	2	1395	1	1852	1795	Y_»_switched	wö_2_2_loudCheck.wav	100865	102260	105183
1	4	1_3	1	0	0	2	2911	1656	O_Q	a_long_2_3_loudCheck.wav	110121	0	114297
1	5	6_1	4	2	1059	1	2881	1996	T_O_switched	sche_2_1.wav	119193	120252	123722
1	6	3_13	2	2	1514	0	3387	899	Q_·	un_short_2_1_loudCheck.wav	129137	130651	132566
1	7	6_7	4	1	2286	1	2466	1779	T_U	sche_2_1.wav	137050	139336	141358
1	8	5_12	3	1	1093	1	2885	1654	S_½	e_long_2_2.wav	146270	147363	150453
1	9	11_3	6	1	1310	1	2364	2173	Y_Q	wö_2_2_loudCheck.wav	154834	156144	159538
1	10	10_7	5	1	1945	1	2221	1066	X_U	st_2_2_loudCheck.wav	163777	165722	167382
1	11	1_5	1	1	1134	1	2182	2131	O_S	a_long_2_3_loudCheck.wav	171583	172717	176242
1	12	3_1	2	1	1656	1	2335	2341	Q_O	un_short_2_1_loudCheck.wav	180603	182259	185487
1	13	10_15	5	2	2095	1	3114	1395	X_¹_switched	st_2_2_loudCheck.wav	190619	192714	194532
1	14	6_10	4	2	1488	1	1738	1146	T_X_switched	sche_2_1.wav	198295	199783	201960
1	15	11_12	6	1	1588	1	2350	2123	Y_½	wö_2_2_loudCheck.wav	206333	207921	210983
1	16	3_9	2	1	1756	1	2586	2582	Q_W	un_short_2_1_loudCheck.wav	215587	217343	220696
1	17	10_15	5	2	1481	1	2836	2244	X_¹_switched	st_2_2_loudCheck.wav	225560	227041	230331
1	18	11_12	6	1	2138	1	2678	2155	Y_½	wö_2_2_loudCheck.wav	235041	237179	239714
1	19	6_11	4	2	1616	1	2532	1289	T_Y_switched	sche_2_1.wav	244265	245881	248084
1	20	1_5	1	1	1128	1	3581	1855	O_S	a_long_2_3_loudCheck.wav	253696	254824	258071
1	21	6_2	4	1	2383	1	2334	1453	T_P	sche_2_1.wav	262423	264806	266402
1	22	10_16	5	2	1435	1	3315	2619	X_º_switched	st_2_2_loudCheck.wav	271735	273170	276872
1	23	6_11	4	1	2221	0	2035	2041	T_Y_switched	sche_2_1.wav	280932	283153	285497
1	24	11_4	6	1	1522	1	2671	1465	Y_»	wö_2_2_loudCheck.wav	290184	291706	294174
1	25	3_13	2	2	1890	0	1760	2403	Q_·_switched	un_short_2_1_loudCheck.wav	297956	299846	302890
1	26	6_2	4	1	2257	1	1991	2151	T_P	sche_2_1.wav	306904	309161	311572
1	27	5_13	3	1	1143	0	2986	2422	S_·_switched	e_long_2_2.wav	316582	317725	321532
1	28	1_16	1	2	1683	1	2670	1380	O_º_switched	a_long_2_3_loudCheck.wav	326223	327906	330129
1	29	3_10	2	1	1867	0	2448	1599	Q_X_switched	un_short_2_1_loudCheck.wav	334601	336468	338746
1	30	5_1	3	2	1629	1	1889	2576	S_O_switched	e_long_2_2.wav	342658	344287	347770
1	31	1_8	1	1	1523	1	2720	1718	O_¼	a_long_2_3_loudCheck.wav	352507	354030	356751
1	32	5_11	3	2	1590	1	2503	2130	S_Y_switched	e_long_2_2.wav	361275	362865	365931
1	33	11_2	6	1	1376	1	3066	1509	Y_P	wö_2_2_loudCheck.wav	371024	372400	375066
1	34	10_6	5	1	1281	1	2954	2035	X_T	st_2_2_loudCheck.wav	380048	381329	384610
1	35	11_8	6	2	1688	1	2458	2754	Y_¼_switched	wö_2_2_loudCheck.wav	389090	390778	394381
1	36	10_9	5	2	1695	1	2925	2189	X_W_switched	st_2_2_loudCheck.wav	399330	401025	404041
1	37	3_6	2	1	1548	0	3740	1574	Q_T_switched	un_short_2_1_loudCheck.wav	409800	411348	413903
1	38	5_7	3	2	1234	1	1615	2602	S_U_switched	e_long_2_2.wav	417549	418783	422676
1	39	1_9	1	2	1575	1	2219	2898	O_W_switched	a_long_2_3_loudCheck.wav	426920	428495	432342
1	40	5_6	3	2	1533	1	3200	2324	S_T_switched	e_long_2_2.wav	437573	439106	442430
1	41	1_3	1	1	1571	1	2269	2220	O_Q	a_long_2_3_loudCheck.wav	446717	448288	451461
1	42	6_14	4	2	2280	0	2010	1796	T_¸	sche_2_1.wav	455493	457773	459821
1	43	5_4	3	1	1134	1	2786	1670	S_»	e_long_2_2.wav	464634	465768	468831
1	44	11_16	6	2	1403	1	2134	1628	Y_º_switched	wö_2_2_loudCheck.wav	472983	474386	477137
1	45	1_5	1	1	1608	1	2195	1320	O_S	a_long_2_3_loudCheck.wav	481359	482967	485210
1	46	5_14	3	2	1408	1	2639	2924	S_¸_switched	e_long_2_2.wav	489866	491274	495313
1	47	3_10	2	1	1525	1	2871	1639	Q_X	un_short_2_1_loudCheck.wav	500206	501731	504371
1	48	10_15	5	2	1452	1	2841	1105	X_¹_switched	st_2_2_loudCheck.wav	509228	510680	512856
