block	trial	vStims	aStim	resp	rt	fb	iti	feedJitter	vSymbols	aFile	stimOnset	respOnset	feedbackOnset
1	1	2	3	2	1	1482	1	1852	1592	R	V	R	e_short_2_2.wav	practice	practice	practice
1	2	1	2	2	2	1134	1	3200	1066	N	R	R	e_short_2_2.wav	practice	practice	practice
1	3	2	3	3	1	1247	0	2458	1996	R	V	V	t_2_1_loudCheck.wav	practice	practice	practice
1	4	1	3	1	2	1632	0	2134	2130	N	V	N	a_short_2_2.wav	practice	practice	practice
1	5	2	1	1	1	1768	0	2182	1628	R	N	N	a_short_2_2.wav	practice	practice	practice
1	6	3	1	3	2	1315	0	2350	2619	V	N	V	t_2_1_loudCheck.wav	practice	practice	practice
1	1	10_14	5	0	0	2	2841	1656	X_¸	st_2_2_loudCheck.wav	70591	0	74794
1	2	3_8	2	2	1899	1	3066	1465	Q_¼_switched	un_short_2_1_loudCheck.wav	79892	81791	83896
1	3	11_4	6	1	1895	1	2269	1628	Y_»	wö_2_2_loudCheck.wav	88204	90099	92367
1	4	1_3	1	2	1312	0	2586	2924	O_Q	a_long_2_3_loudCheck.wav	96979	98291	102439
1	5	6_1	4	1	1254	0	2720	1105	T_O_switched	sche_2_1.wav	107190	108444	110846
1	6	3_13	2	1	1189	1	1738	2123	Q_·	un_short_2_1_loudCheck.wav	114616	115805	119272
1	7	6_7	4	2	1726	1	2466	2041	T_U_switched	sche_2_1.wav	123770	125496	128349
1	8	5_12	3	1	1182	0	2786	1639	S_½_switched	e_long_2_2.wav	133165	134347	137356
1	9	11_3	6	2	1172	0	2219	1592	Y_Q	wö_2_2_loudCheck.wav	141607	142779	145734
1	10	10_7	5	1	1967	1	2350	1670	X_U	st_2_2_loudCheck.wav	150113	152080	154321
1	11	1_5	1	2	1510	0	1615	2189	O_S	a_long_2_3_loudCheck.wav	157970	159480	162698
1	12	3_1	2	1	1147	1	2670	1654	Q_O	un_short_2_1_loudCheck.wav	167400	168547	171589
1	13	10_15	5	1	1932	1	2195	1718	X_¹	st_2_2_loudCheck.wav	175817	177749	180061
1	14	6_10	4	2	1317	0	2836	2220	T_X	sche_2_1.wav	184934	186251	189689
1	15	11_12	6	1	1018	0	2671	1453	Y_½_switched	wö_2_2_loudCheck.wav	194395	195413	198382
1	16	3_9	2	2	728	1	2221	1320	Q_W_switched	un_short_2_1_loudCheck.wav	202637	203365	206490
1	17	10_15	5	2	1270	1	2182	1779	X_¹_switched	st_2_2_loudCheck.wav	210706	211976	215041
1	18	11_12	6	1	1411	1	2503	2422	Y_½	wö_2_2_loudCheck.wav	219569	220980	224526
1	19	6_11	4	2	1106	1	2010	1289	T_Y_switched	sche_2_1.wav	228569	229675	232385
1	20	1_5	1	1	1989	0	2678	1599	O_S_switched	a_long_2_3_loudCheck.wav	237095	239084	241220
1	21	6_2	4	2	871	1	1991	2173	T_P_switched	sche_2_1.wav	245250	246121	249952
1	22	10_16	5	1	1193	1	2986	1146	X_º	st_2_2_loudCheck.wav	254970	256163	258652
1	23	6_11	4	1	1399	1	2532	2619	T_Y	sche_2_1.wav	263208	264607	268366
1	24	11_4	6	2	1654	1	3581	1509	Y_»_switched	wö_2_2_loudCheck.wav	273983	275637	278017
1	25	3_13	2	2	1214	0	1760	2576	Q_·_switched	un_short_2_1_loudCheck.wav	281805	283019	286909
1	26	6_2	4	1	1090	1	3315	2244	T_P	sche_2_1.wav	292253	293343	297020
1	27	5_13	3	2	1262	1	2871	2898	S_·_switched	e_long_2_2.wav	301919	303181	307351
1	28	1_16	1	1	1155	1	3740	1796	O_º	a_long_2_3_loudCheck.wav	313115	314270	317460
1	29	3_10	2	2	1310	1	2335	1066	Q_X_switched	un_short_2_1_loudCheck.wav	321820	323130	325422
1	30	5_1	3	2	1113	1	2885	2324	S_O_switched	e_long_2_2.wav	330344	331457	335205
1	31	1_8	1	2	1046	1	2954	2151	O_¼_switched	a_long_2_3_loudCheck.wav	340190	341236	344875
1	32	5_11	3	1	987	1	2925	1380	S_Y	e_long_2_2.wav	349837	350824	353747
1	33	11_2	6	2	1396	0	1852	1395	Y_P	wö_2_2_loudCheck.wav	357623	359019	361553
1	34	10_6	5	1	1424	1	2134	2403	X_T	st_2_2_loudCheck.wav	365713	367137	370669
1	35	11_8	6	1	989	1	1889	1855	Y_¼	wö_2_2_loudCheck.wav	374594	375583	378980
1	36	10_9	5	1	918	0	2334	1574	X_W_switched	st_2_2_loudCheck.wav	383347	384265	387458
1	37	3_6	2	2	1295	1	2035	1795	Q_T_switched	un_short_2_1_loudCheck.wav	391523	392818	395854
1	38	5_7	3	1	1407	1	2448	899	S_U	e_long_2_2.wav	400328	401735	403767
1	39	1_9	1	2	1380	1	3387	2131	O_W_switched	a_long_2_3_loudCheck.wav	409191	410571	413857
1	40	5_6	3	2	1446	1	2632	2754	S_T_switched	e_long_2_2.wav	418513	419959	423806
1	41	1_3	1	1	1026	1	2364	2130	O_Q	a_long_2_3_loudCheck.wav	428205	429231	432859
1	42	6_14	4	2	1779	1	2458	2602	T_¸_switched	sche_2_1.wav	437341	439120	442473
1	43	5_4	3	1	1488	1	2881	2035	S_»	e_long_2_2.wav	447391	448879	451950
1	44	11_16	6	2	994	1	1927	2155	Y_º_switched	wö_2_2_loudCheck.wav	455913	456907	460595
1	45	1_5	1	1	1000	0	3114	1996	O_S_switched	a_long_2_3_loudCheck.wav	465742	466742	470279
1	46	5_14	3	1	980	1	2911	2341	S_¸	e_long_2_2.wav	475215	476195	480100
1	47	3_10	2	2	1444	1	2639	2582	Q_X_switched	un_short_2_1_loudCheck.wav	484770	486214	489901
1	48	10_15	5	1	1172	1	3200	1582	X_¹	st_2_2_loudCheck.wav	495124	496296	499244
