block	trial	vStims	aStim	resp	rt	fb	iti	feedJitter	vSymbols	aFile	stimOnset	respOnset	feedbackOnset
2	1	2	3	2	1	1422	1	1852	1592	I	A	I	w_2_2_loudCheck.wav	practice	practice	practice
2	2	1	2	2	1	1251	0	3200	1066	E	I	I	w_2_2_loudCheck.wav	practice	practice	practice
2	3	2	3	3	2	941	1	2458	1996	I	A	A	k_2_1_loudCheck.wav	practice	practice	practice
2	4	1	3	1	1	1309	1	2134	2130	E	A	E	z_2_2.wav	practice	practice	practice
2	5	2	1	1	1	1959	0	2182	1628	I	E	E	z_2_2.wav	practice	practice	practice
2	6	3	1	3	1	1039	1	2350	2619	A	E	A	k_2_1_loudCheck.wav	practice	practice	practice
2	1	1_11	1	2	1915	0	2925	1146	B_L_switched	ki_short_2_1.wav	61372	63287	65040
2	2	5_16	3	1	1533	1	2639	1996	F_Ð	zi_2_2.wav	69719	71252	74238
2	3	11_8	6	1	1841	1	2334	1066	L_Ò	wa_short_2_2.wav	78650	80491	82243
2	4	5_6	3	2	1968	1	2364	2619	F_G_switched	zi_2_2.wav	86626	88594	91775
2	5	11_12	6	1	1890	1	1738	2123	L_Ó	wa_short_2_2.wav	95538	97428	100180
2	6	3_14	2	1	1277	0	2671	2754	D_Î_switched	ka_loudCheck.wav	104919	106196	110198
2	7	1_10	1	2	1422	1	2035	1592	B_K_switched	ki_short_2_1.wav	114257	115679	118373
2	8	6_9	4	2	2360	1	2010	2173	G_J_switched	schl_2_1.wav	122513	124873	127218
2	9	3_8	2	1	1439	1	2503	2220	D_Ò	ka_loudCheck.wav	131740	133179	136485
2	10	1_15	1	2	1887	1	1760	1656	B_Ï_switched	ki_short_2_1.wav	140267	142154	144453
2	11	3_14	2	1	1136	1	2678	1395	D_Î	ka_loudCheck.wav	149147	150283	153060
2	12	11_2	6	2	1597	1	2221	2324	L_C_switched	wa_short_2_2.wav	157306	158903	162153
2	13	10_5	5	1	1548	0	2954	2403	K_F_switched	pf_2_1_loudCheck.wav	167142	168690	172072
2	14	1_10	1	1	2289	1	1852	1320	B_K	ki_short_2_1.wav	175946	178235	179789
2	15	5_2	3	1	1269	1	2632	1654	F_C	zi_2_2.wav	184437	185706	188622
2	16	10_13	5	1	1873	1	2670	1289	K_Í	pf_2_1_loudCheck.wav	193310	195183	197141
2	17	3_9	2	2	868	1	2458	2130	D_J_switched	ka_loudCheck.wav	201630	202498	206297
2	18	11_16	6	1	1472	1	3740	1599	L_Ð	wa_short_2_2.wav	212064	213536	216192
2	19	6_5	4	2	1778	1	2720	1796	G_F_switched	schl_2_1.wav	220935	222713	225257
2	20	10_12	5	2	1901	0	2871	1582	K_Ó	pf_2_1_loudCheck.wav	230154	232055	234263
2	21	3_8	2	2	1187	1	3315	2341	D_Ò_switched	ka_loudCheck.wav	239600	240787	244459
2	22	5_11	3	2	1732	1	1927	1718	F_L_switched	zi_2_2.wav	248404	250136	252653
2	23	11_1	6	2	1170	1	3066	2244	L_B_switched	wa_short_2_2.wav	257740	258910	262516
2	24	6_7	4	2	1579	1	2786	1380	G_H_switched	schl_2_1.wav	267317	268896	271241
2	25	5_15	3	1	2377	1	2195	1670	F_Ï	zi_2_2.wav	275459	277836	279661
2	26	10_1	5	1	1388	1	2448	2898	K_B	pf_2_1_loudCheck.wav	284127	285515	289555
2	27	11_3	6	2	1693	1	2350	2155	L_D_switched	wa_short_2_2.wav	293936	295629	298619
2	28	6_4	4	1	1288	1	3200	1795	G_Ñ	schl_2_1.wav	303838	305126	308166
2	29	1_10	1	1	1784	1	3114	899	B_K	ki_short_2_1.wav	313307	315091	316724
2	30	10_7	5	1	2202	1	2335	2924	K_H	pf_2_1_loudCheck.wav	321077	323279	326527
2	31	11_6	6	2	1670	1	2182	1574	L_G_switched	wa_short_2_2.wav	330731	332401	334832
2	32	10_16	5	1	1650	1	3387	1453	K_Ð	pf_2_1_loudCheck.wav	340250	341900	344233
2	33	6_4	4	2	1430	1	2836	2035	G_Ñ_switched	schl_2_1.wav	349086	350516	353649
2	34	10_2	5	1	1384	1	2586	2422	K_C	pf_2_1_loudCheck.wav	358257	359641	363205
2	35	5_15	3	2	1954	1	1991	2576	F_Ï_switched	zi_2_2.wav	367217	369171	372311
2	36	1_11	1	2	2368	0	2219	1779	B_L_switched	ki_short_2_1.wav	376547	378915	380867
2	37	6_13	4	1	1507	1	2841	1509	G_Í	schl_2_1.wav	385735	387242	389767
2	38	5_14	3	1	1515	1	2134	1639	F_Î	zi_2_2.wav	393929	395444	398111
2	39	11_3	6	2	1282	1	2986	2189	L_D_switched	wa_short_2_2.wav	403112	404394	407830
2	40	1_4	1	2	1731	1	2881	1855	B_Ñ_switched	ki_short_2_1.wav	412730	414461	417118
2	41	3_1	2	2	1588	1	3581	2582	D_B_switched	ka_loudCheck.wav	422717	424305	427819
2	42	5_9	3	2	2192	1	2885	2151	F_J_switched	zi_2_2.wav	432732	434924	437412
2	43	6_12	4	2	2497	0	2269	2131	G_Ó	schl_2_1.wav	441705	444202	446360
2	44	3_13	2	1	1089	1	1615	2041	D_Í	ka_loudCheck.wav	450002	451091	454568
2	45	6_3	4	1	2140	1	2532	1105	G_D	schl_2_1.wav	459116	461256	462751
2	46	3_7	2	2	1020	1	2466	1465	D_H_switched	ka_loudCheck.wav	467247	468267	471241
2	47	1_6	1	1	907	1	2911	2602	B_G	ki_short_2_1.wav	476174	477081	481313
2	48	10_5	5	1	1707	1	1889	1628	K_F	pf_2_1_loudCheck.wav	485227	486934	489374
