block	trial	Vstim	Astim	match	C/I	resp	result	RT	fb	V-file	A-file

RL

0	1	2	4	0	C	1	0	1431	0	Ⴞ	cut_ee.wav
0	2	1	1	1	C	2	0	980	0	Ⴋ	cut_eeuw.wav
0	3	2	3	1	C	2	0	1163	0	Ⴞ	cut_g.wav
0	4	1	2	0	C	1	0	980	0	Ⴋ	cut_oo.wav
0	5	1	1	1	C	1	1	978	1	Ⴋ	cut_eeuw.wav
0	6	1	2	0	C	2	1	626	1	Ⴋ	cut_oo.wav
0	7	2	3	1	C	1	1	651	1	Ⴞ	cut_g.wav
0	8	2	4	0	C	1	0	856	0	Ⴞ	cut_ee.wav
0	9	2	4	0	C	2	1	914	1	Ⴞ	cut_ee.wav
0	10	1	1	1	C	1	1	841	1	Ⴋ	cut_eeuw.wav
0	11	1	2	0	C	1	0	863	0	Ⴋ	cut_oo.wav
0	12	2	3	1	C	1	1	1017	1	Ⴞ	cut_g.wav
0	13	2	4	0	C	2	1	649	1	Ⴞ	cut_ee.wav
0	14	1	2	0	C	1	0	462	0	Ⴋ	cut_oo.wav
0	15	2	3	1	C	1	1	813	1	Ⴞ	cut_g.wav
0	16	1	1	1	C	2	0	1028	0	Ⴋ	cut_eeuw.wav
0	17	1	1	1	C	1	1	878	1	Ⴋ	cut_eeuw.wav
0	18	2	4	0	C	1	0	813	0	Ⴞ	cut_ee.wav
0	19	2	3	1	C	1	1	1110	1	Ⴞ	cut_g.wav
0	20	1	2	0	C	2	1	765	1	Ⴋ	cut_oo.wav
0	21	1	1	1	C	1	1	998	1	Ⴋ	cut_eeuw.wav
0	22	2	4	0	C	1	0	811	0	Ⴞ	cut_ee.wav
0	23	2	3	1	C	1	1	1086	1	Ⴞ	cut_g.wav
0	24	1	2	0	C	2	1	841	1	Ⴋ	cut_oo.wav
0	25	1	2	0	C	2	1	845	1	Ⴋ	cut_oo.wav
0	26	2	3	1	C	1	1	672	1	Ⴞ	cut_g.wav
0	27	1	1	1	C	1	1	923	1	Ⴋ	cut_eeuw.wav
0	28	2	4	0	C	1	0	882	0	Ⴞ	cut_ee.wav
0	29	2	4	0	C	2	1	954	1	Ⴞ	cut_ee.wav
0	30	2	3	1	C	1	1	955	1	Ⴞ	cut_g.wav
avg_resp = 869
1	1	3	4	2	I	1	0	947	1	Ⴟ	cut_o.wav
1	2	2	1	0	C	1	0	800	0	Ⴢ	cut_a.wav
1	3	1	1	1	C	2	0	912	0	Ⴂ	cut_a.wav
1	4	4	4	2	I	2	0	935	1	Ⴡ	cut_o.wav
1	5	3	3	2	I	1	0	776	1	Ⴟ	cut_k.wav
1	6	2	2	1	C	1	1	1124	1	Ⴢ	cut_u.wav
1	7	4	3	2	I	2	0	1025	1	Ⴡ	cut_k.wav
1	8	1	2	0	C	2	1	744	1	Ⴂ	cut_u.wav
1	9	3	4	2	I	2	0	765	0	Ⴟ	cut_o.wav
1	10	1	2	0	C	2	1	694	1	Ⴂ	cut_u.wav
1	11	4	3	2	I	2	0	796	0	Ⴡ	cut_k.wav
1	12	2	2	1	C	1	1	755	1	Ⴢ	cut_u.wav
1	13	4	4	2	I	2	0	798	0	Ⴡ	cut_o.wav
1	14	3	3	2	I	1	0	943	1	Ⴟ	cut_k.wav
1	15	1	1	1	C	1	1	957	1	Ⴂ	cut_a.wav
1	16	2	1	0	C	1	0	1128	0	Ⴢ	cut_a.wav
1	17	3	4	2	I	2	0	859	0	Ⴟ	cut_o.wav
1	18	4	3	2	I	2	0	881	0	Ⴡ	cut_k.wav
1	19	2	2	1	C	2	0	1129	0	Ⴢ	cut_u.wav
1	20	1	2	0	C	2	1	607	1	Ⴂ	cut_u.wav
1	21	4	4	2	I	1	0	1003	0	Ⴡ	cut_o.wav
1	22	2	1	0	C	1	0	1124	0	Ⴢ	cut_a.wav
1	23	3	3	2	I	2	0	941	1	Ⴟ	cut_k.wav
1	24	1	1	1	C	1	1	977	1	Ⴂ	cut_a.wav
1	25	4	4	2	I	1	0	845	1	Ⴡ	cut_o.wav
1	26	3	3	2	I	2	0	835	1	Ⴟ	cut_k.wav
1	27	1	2	0	C	2	1	666	1	Ⴂ	cut_u.wav
1	28	2	1	0	C	2	1	743	1	Ⴢ	cut_a.wav
1	29	3	4	2	I	2	0	784	0	Ⴟ	cut_o.wav
1	30	1	1	1	C	1	1	973	1	Ⴂ	cut_a.wav
1	31	2	2	1	C	2	0	1123	0	Ⴢ	cut_u.wav
1	32	4	3	2	I	1	0	778	0	Ⴡ	cut_k.wav
1	33	3	3	2	I	1	0	808	1	Ⴟ	cut_k.wav
1	34	2	1	0	C	1	0	1095	0	Ⴢ	cut_a.wav
1	35	4	4	2	I	2	0	1107	0	Ⴡ	cut_o.wav
1	36	1	2	0	C	2	1	1382	1	Ⴂ	cut_u.wav
1	37	2	2	1	C	1	1	573	1	Ⴢ	cut_u.wav
1	38	1	1	1	C	1	1	868	1	Ⴂ	cut_a.wav
1	39	4	3	2	I	1	0	990	0	Ⴡ	cut_k.wav
1	40	3	4	2	I	2	0	776	1	Ⴟ	cut_o.wav
1	41	2	1	0	C	1	0	1033	0	Ⴢ	cut_a.wav
1	42	1	2	0	C	1	0	1360	0	Ⴂ	cut_u.wav
1	43	3	3	2	I	2	0	1037	0	Ⴟ	cut_k.wav
1	44	4	4	2	I	1	0	1533	0	Ⴡ	cut_o.wav
1	45	3	4	2	I	1	0	761	1	Ⴟ	cut_o.wav
1	46	2	2	1	C	2	0	1166	0	Ⴢ	cut_u.wav
1	47	1	1	1	C	1	1	1054	1	Ⴂ	cut_a.wav
1	48	4	3	2	I	2	0	761	0	Ⴡ	cut_k.wav
1	49	1	1	1	C	1	1	989	1	Ⴂ	cut_a.wav
1	50	2	1	0	C	1	0	814	0	Ⴢ	cut_a.wav
1	51	3	4	2	I	2	0	1130	0	Ⴟ	cut_o.wav
1	52	4	4	2	I	2	0	710	1	Ⴡ	cut_o.wav
1	53	1	2	0	C	2	1	740	1	Ⴂ	cut_u.wav
1	54	4	3	2	I	2	0	1019	0	Ⴡ	cut_k.wav
1	55	2	2	1	C	1	1	1045	1	Ⴢ	cut_u.wav
1	56	3	3	2	I	2	0	833	0	Ⴟ	cut_k.wav
1	57	1	1	1	C	1	1	1100	1	Ⴂ	cut_a.wav
1	58	2	2	1	C	1	1	1005	1	Ⴢ	cut_u.wav
1	59	3	4	2	I	2	0	943	1	Ⴟ	cut_o.wav
1	60	4	3	2	I	2	0	696	1	Ⴡ	cut_k.wav
1	61	1	2	0	C	2	1	830	1	Ⴂ	cut_u.wav
1	62	3	3	2	I	1	0	603	1	Ⴟ	cut_k.wav
1	63	2	1	0	C	2	1	815	1	Ⴢ	cut_a.wav
1	64	4	4	2	I	2	0	801	1	Ⴡ	cut_o.wav
1	65	1	2	0	C	2	1	962	1	Ⴂ	cut_u.wav
1	66	4	3	2	I	2	0	569	0	Ⴡ	cut_k.wav
1	67	3	4	2	I	1	0	1232	1	Ⴟ	cut_o.wav
1	68	2	2	1	C	2	0	952	0	Ⴢ	cut_u.wav
1	69	4	4	2	I	2	0	832	1	Ⴡ	cut_o.wav
1	70	3	3	2	I	2	0	728	0	Ⴟ	cut_k.wav
1	71	1	1	1	C	1	1	950	1	Ⴂ	cut_a.wav
1	72	2	1	0	C	1	0	1132	0	Ⴢ	cut_a.wav
1	73	3	4	2	I	1	0	901	1	Ⴟ	cut_o.wav
1	74	1	2	0	C	2	1	884	1	Ⴂ	cut_u.wav
1	75	4	4	2	I	2	0	758	1	Ⴡ	cut_o.wav
1	76	2	1	0	C	2	1	966	1	Ⴢ	cut_a.wav
1	77	1	1	1	C	1	1	789	1	Ⴂ	cut_a.wav
1	78	4	3	2	I	2	0	549	0	Ⴡ	cut_k.wav
1	79	2	2	1	C	2	0	1317	0	Ⴢ	cut_u.wav
1	80	3	3	2	I	2	0	798	1	Ⴟ	cut_k.wav
1	81	1	2	0	C	2	1	1000	1	Ⴂ	cut_u.wav
1	82	4	4	2	I	2	0	937	0	Ⴡ	cut_o.wav
1	83	3	3	2	I	2	0	842	1	Ⴟ	cut_k.wav
1	84	2	2	1	C	2	0	940	0	Ⴢ	cut_u.wav
1	85	3	4	2	I	1	0	729	0	Ⴟ	cut_o.wav
1	86	2	1	0	C	2	1	943	1	Ⴢ	cut_a.wav
1	87	4	3	2	I	1	0	1190	1	Ⴡ	cut_k.wav
1	88	1	1	1	C	2	0	726	0	Ⴂ	cut_a.wav
1	89	2	2	1	C	1	1	1085	1	Ⴢ	cut_u.wav
1	90	4	3	2	I	2	0	1110	0	Ⴡ	cut_k.wav
1	91	3	4	2	I	2	0	1075	0	Ⴟ	cut_o.wav
1	92	1	2	0	C	2	1	993	1	Ⴂ	cut_u.wav
1	93	2	1	0	C	2	1	917	1	Ⴢ	cut_a.wav
1	94	3	3	2	I	2	0	481	1	Ⴟ	cut_k.wav
1	95	1	1	1	C	1	1	990	1	Ⴂ	cut_a.wav
1	96	4	4	2	I	2	0	633	1	Ⴡ	cut_o.wav
1	97	2	1	0	C	2	1	1043	1	Ⴢ	cut_a.wav
1	98	4	4	2	I	1	0	1065	0	Ⴡ	cut_o.wav
1	99	3	3	2	I	2	0	697	1	Ⴟ	cut_k.wav
1	100	1	1	1	C	2	0	670	0	Ⴂ	cut_a.wav
1	101	3	4	2	I	1	0	757	0	Ⴟ	cut_o.wav
1	102	2	2	1	C	1	1	981	1	Ⴢ	cut_u.wav
1	103	4	3	2	I	1	0	1167	1	Ⴡ	cut_k.wav
1	104	1	2	0	C	2	1	1032	1	Ⴂ	cut_u.wav
1	105	4	3	2	I	1	0	1051	0	Ⴡ	cut_k.wav
1	106	3	4	2	I	1	0	1175	1	Ⴟ	cut_o.wav
1	107	2	2	1	C	2	0	655	0	Ⴢ	cut_u.wav
1	108	1	1	1	C	1	1	858	1	Ⴂ	cut_a.wav
1	109	3	3	2	I	1	0	666	0	Ⴟ	cut_k.wav
1	110	1	2	0	C	1	0	1367	0	Ⴂ	cut_u.wav
1	111	2	1	0	C	2	1	1286	1	Ⴢ	cut_a.wav
1	112	4	4	2	I	2	0	797	1	Ⴡ	cut_o.wav
1	113	2	2	1	C	2	0	947	0	Ⴢ	cut_u.wav
1	114	4	4	2	I	1	0	880	1	Ⴡ	cut_o.wav
1	115	3	4	2	I	2	0	1028	1	Ⴟ	cut_o.wav
1	116	1	1	1	C	1	1	1282	1	Ⴂ	cut_a.wav
1	117	2	1	0	C	2	1	421	1	Ⴢ	cut_a.wav
1	118	3	3	2	I	2	0	507	0	Ⴟ	cut_k.wav
1	119	1	2	0	C	1	0	1093	0	Ⴂ	cut_u.wav
1	120	4	3	2	I	2	0	983	1	Ⴡ	cut_k.wav
1	121	1	2	0	C	2	1	885	1	Ⴂ	cut_u.wav
1	122	2	1	0	C	2	1	1079	1	Ⴢ	cut_a.wav
1	123	3	4	2	I	2	0	810	0	Ⴟ	cut_o.wav
1	124	4	4	2	I	2	0	865	1	Ⴡ	cut_o.wav
1	125	2	2	1	C	1	1	928	1	Ⴢ	cut_u.wav
1	126	3	3	2	I	2	0	1000	1	Ⴟ	cut_k.wav
1	127	4	3	2	I	1	0	755	1	Ⴡ	cut_k.wav
1	128	1	1	1	C	1	1	981	1	Ⴂ	cut_a.wav
1	129	4	4	2	I	2	0	653	1	Ⴡ	cut_o.wav
1	130	1	1	1	C	1	1	707	1	Ⴂ	cut_a.wav
1	131	3	3	2	I	2	0	866	1	Ⴟ	cut_k.wav
1	132	2	1	0	C	2	1	702	1	Ⴢ	cut_a.wav
1	133	1	2	0	C	2	1	965	1	Ⴂ	cut_u.wav
1	134	4	3	2	I	2	0	769	1	Ⴡ	cut_k.wav
1	135	2	2	1	C	2	0	863	0	Ⴢ	cut_u.wav
1	136	3	4	2	I	2	0	1098	0	Ⴟ	cut_o.wav
1	137	4	3	2	I	2	0	1407	1	Ⴡ	cut_k.wav
1	138	1	2	0	C	2	1	923	1	Ⴂ	cut_u.wav
1	139	3	4	2	I	2	0	845	0	Ⴟ	cut_o.wav
1	140	2	1	0	C	2	1	875	1	Ⴢ	cut_a.wav
1	141	3	3	2	I	2	0	860	0	Ⴟ	cut_k.wav
1	142	2	2	1	C	2	0	921	0	Ⴢ	cut_u.wav
1	143	1	1	1	C	1	1	1143	1	Ⴂ	cut_a.wav
1	144	4	4	2	I	2	0	872	0	Ⴡ	cut_o.wav
1	145	2	1	0	C	2	1	771	1	Ⴢ	cut_a.wav
1	146	1	2	0	C	2	1	889	1	Ⴂ	cut_u.wav
1	147	3	3	2	I	2	0	666	0	Ⴟ	cut_k.wav
1	148	4	4	2	I	1	0	698	0	Ⴡ	cut_o.wav
1	149	1	1	1	C	1	1	693	1	Ⴂ	cut_a.wav
1	150	3	4	2	I	2	0	1026	1	Ⴟ	cut_o.wav
1	151	4	3	2	I	2	0	1088	0	Ⴡ	cut_k.wav
1	152	2	2	1	C	2	0	1149	0	Ⴢ	cut_u.wav
1	153	4	4	2	I	1	0	968	1	Ⴡ	cut_o.wav
1	154	1	1	1	C	2	0	1250	0	Ⴂ	cut_a.wav
1	155	3	4	2	I	2	0	1168	0	Ⴟ	cut_o.wav
1	156	2	1	0	C	1	0	889	0	Ⴢ	cut_a.wav
1	157	3	3	2	I	2	0	903	0	Ⴟ	cut_k.wav
1	158	1	2	0	C	2	1	1365	1	Ⴂ	cut_u.wav
1	159	4	3	2	I	2	0	784	0	Ⴡ	cut_k.wav
1	160	2	2	1	C	1	1	1273	1	Ⴢ	cut_u.wav
1	161	1	1	1	C	1	1	1096	1	Ⴂ	cut_a.wav
1	162	4	4	2	I	2	0	780	1	Ⴡ	cut_o.wav
1	163	3	3	2	I	2	0	497	0	Ⴟ	cut_k.wav
1	164	2	2	1	C	1	1	981	1	Ⴢ	cut_u.wav
1	165	4	3	2	I	1	0	1419	1	Ⴡ	cut_k.wav
1	166	3	4	2	I	2	0	1013	1	Ⴟ	cut_o.wav
1	167	1	2	0	C	2	1	995	1	Ⴂ	cut_u.wav
1	168	2	1	0	C	2	1	798	1	Ⴢ	cut_a.wav
1	169	4	4	2	I	2	0	395	1	Ⴡ	cut_o.wav
1	170	2	1	0	C	2	1	771	1	Ⴢ	cut_a.wav
1	171	1	1	1	C	1	1	810	1	Ⴂ	cut_a.wav
1	172	3	3	2	I	2	0	1037	0	Ⴟ	cut_k.wav
1	173	1	2	0	C	2	1	1106	1	Ⴂ	cut_u.wav
1	174	2	2	1	C	2	0	1316	0	Ⴢ	cut_u.wav
1	175	3	4	2	I	1	0	941	0	Ⴟ	cut_o.wav
1	176	4	3	2	I	2	0	1206	0	Ⴡ	cut_k.wav
1	177	1	2	0	C	1	0	1709	0	Ⴂ	cut_u.wav
1	178	2	2	1	C	1	1	1210	1	Ⴢ	cut_u.wav
1	179	3	4	2	I	2	0	1549	1	Ⴟ	cut_o.wav
1	180	4	3	2	I	2	0	862	0	Ⴡ	cut_k.wav
1	181	1	1	1	C	1	1	1058	1	Ⴂ	cut_a.wav
1	182	3	3	2	I	1	0	1115	0	Ⴟ	cut_k.wav
1	183	4	4	2	I	2	0	1177	0	Ⴡ	cut_o.wav
1	184	2	1	0	C	2	1	826	1	Ⴢ	cut_a.wav
1	185	3	4	2	I	1	0	1100	1	Ⴟ	cut_o.wav
1	186	4	3	2	I	1	0	1094	1	Ⴡ	cut_k.wav
1	187	2	2	1	C	1	1	1107	1	Ⴢ	cut_u.wav
1	188	1	2	0	C	2	1	711	1	Ⴂ	cut_u.wav
1	189	4	4	2	I	2	0	894	0	Ⴡ	cut_o.wav
1	190	2	1	0	C	2	1	1005	1	Ⴢ	cut_a.wav
1	191	3	3	2	I	1	0	783	0	Ⴟ	cut_k.wav
1	192	1	1	1	C	1	1	1186	1	Ⴂ	cut_a.wav
1	193	2	2	1	C	1	1	1020	1	Ⴢ	cut_u.wav
1	194	4	4	2	I	2	0	877	1	Ⴡ	cut_o.wav
1	195	1	1	1	C	1	1	1154	1	Ⴂ	cut_a.wav
1	196	3	4	2	I	2	0	804	1	Ⴟ	cut_o.wav
1	197	4	3	2	I	2	0	1029	0	Ⴡ	cut_k.wav
1	198	3	3	2	I	2	0	562	0	Ⴟ	cut_k.wav
1	199	1	2	0	C	1	0	1157	0	Ⴂ	cut_u.wav
1	200	2	1	0	C	1	0	1014	0	Ⴢ	cut_a.wav
2	1	4	3	2	I	2	0	1938	1	Ⴏ	cut_ei.wav
2	2	2	2	1	C	1	1	1153	1	Ⴐ	cut_f.wav
2	3	3	4	2	I	1	0	1556	1	Ⴉ	cut_r.wav
2	4	1	1	1	C	1	1	1105	1	Ⴔ	cut_ui.wav
2	5	3	3	2	I	2	0	1037	0	Ⴉ	cut_ei.wav
2	6	2	1	0	C	2	1	1341	1	Ⴐ	cut_ui.wav
2	7	1	2	0	C	2	1	1369	1	Ⴔ	cut_f.wav
2	8	4	4	2	I	2	0	988	1	Ⴏ	cut_r.wav
2	9	1	1	1	C	1	1	1149	1	Ⴔ	cut_ui.wav
2	10	4	3	2	I	2	0	921	0	Ⴏ	cut_ei.wav
2	11	2	2	1	C	2	0	1183	0	Ⴐ	cut_f.wav
2	12	3	3	2	I	1	0	1058	1	Ⴉ	cut_ei.wav
2	13	1	2	0	C	2	1	1223	1	Ⴔ	cut_f.wav
2	14	3	4	2	I	1	0	1207	0	Ⴉ	cut_r.wav
2	15	2	1	0	C	1	0	981	0	Ⴐ	cut_ui.wav
2	16	4	4	2	I	2	0	1412	1	Ⴏ	cut_r.wav
2	17	1	1	1	C	1	1	791	1	Ⴔ	cut_ui.wav
2	18	4	3	2	I	1	0	1063	0	Ⴏ	cut_ei.wav
2	19	3	3	2	I	1	0	792	0	Ⴉ	cut_ei.wav
2	20	2	1	0	C	1	0	1199	0	Ⴐ	cut_ui.wav
2	21	3	4	2	I	1	0	1578	1	Ⴉ	cut_r.wav
2	22	1	2	0	C	2	1	1088	1	Ⴔ	cut_f.wav
2	23	2	2	1	C	1	1	745	1	Ⴐ	cut_f.wav
2	24	4	4	2	I	2	0	929	0	Ⴏ	cut_r.wav
2	25	2	1	0	C	2	1	1253	1	Ⴐ	cut_ui.wav
2	26	4	4	2	I	1	0	1296	1	Ⴏ	cut_r.wav
2	27	1	2	0	C	2	1	787	1	Ⴔ	cut_f.wav
2	28	3	4	2	I	1	0	1240	0	Ⴉ	cut_r.wav
2	29	4	3	2	I	2	0	913	1	Ⴏ	cut_ei.wav
2	30	3	3	2	I	1	0	820	1	Ⴉ	cut_ei.wav
2	31	1	1	1	C	1	1	943	1	Ⴔ	cut_ui.wav
2	32	2	2	1	C	1	1	1378	1	Ⴐ	cut_f.wav
2	33	4	4	2	I	2	0	983	1	Ⴏ	cut_r.wav
2	34	2	2	1	C	1	1	1432	1	Ⴐ	cut_f.wav
2	35	3	4	2	I	2	0	1362	1	Ⴉ	cut_r.wav
2	36	1	1	1	C	1	1	1035	1	Ⴔ	cut_ui.wav
2	37	2	1	0	C	2	1	933	1	Ⴐ	cut_ui.wav
2	38	3	3	2	I	1	0	1270	1	Ⴉ	cut_ei.wav
2	39	4	3	2	I	2	0	951	1	Ⴏ	cut_ei.wav
2	40	1	2	0	C	2	1	1065	1	Ⴔ	cut_f.wav
2	41	2	2	1	C	1	1	897	1	Ⴐ	cut_f.wav
2	42	3	4	2	I	2	0	685	1	Ⴉ	cut_r.wav
2	43	1	1	1	C	1	1	1196	1	Ⴔ	cut_ui.wav
2	44	4	3	2	I	2	0	732	0	Ⴏ	cut_ei.wav
2	45	1	2	0	C	2	1	837	1	Ⴔ	cut_f.wav
2	46	4	4	2	I	1	0	1419	1	Ⴏ	cut_r.wav
2	47	3	3	2	I	1	0	862	1	Ⴉ	cut_ei.wav
2	48	2	1	0	C	2	1	1129	1	Ⴐ	cut_ui.wav
2	49	3	4	2	I	2	0	1048	1	Ⴉ	cut_r.wav
2	50	2	2	1	C	1	1	910	1	Ⴐ	cut_f.wav
2	51	1	2	0	C	2	1	1102	1	Ⴔ	cut_f.wav
2	52	4	3	2	I	2	0	886	0	Ⴏ	cut_ei.wav
2	53	2	1	0	C	2	1	881	1	Ⴐ	cut_ui.wav
2	54	3	3	2	I	1	0	691	0	Ⴉ	cut_ei.wav
2	55	1	1	1	C	1	1	1716	1	Ⴔ	cut_ui.wav
2	56	4	4	2	I	2	0	1243	0	Ⴏ	cut_r.wav
2	57	3	4	2	I	2	0	798	1	Ⴉ	cut_r.wav
2	58	1	1	1	C	1	1	1075	1	Ⴔ	cut_ui.wav
2	59	4	4	2	I	2	0	1271	0	Ⴏ	cut_r.wav
2	60	2	2	1	C	1	1	830	1	Ⴐ	cut_f.wav
2	61	4	3	2	I	2	0	844	1	Ⴏ	cut_ei.wav
2	62	3	3	2	I	1	0	884	0	Ⴉ	cut_ei.wav
2	63	2	1	0	C	1	0	845	0	Ⴐ	cut_ui.wav
2	64	1	2	0	C	2	1	923	1	Ⴔ	cut_f.wav
2	65	2	2	1	C	1	1	758	1	Ⴐ	cut_f.wav
2	66	1	2	0	C	2	1	901	1	Ⴔ	cut_f.wav
2	67	4	3	2	I	2	0	824	1	Ⴏ	cut_ei.wav
2	68	3	4	2	I	2	0	518	0	Ⴉ	cut_r.wav
2	69	4	4	2	I	1	0	1034	0	Ⴏ	cut_r.wav
2	70	1	1	1	C	1	1	929	1	Ⴔ	cut_ui.wav
2	71	2	1	0	C	2	1	689	1	Ⴐ	cut_ui.wav
2	72	3	3	2	I	2	0	1048	0	Ⴉ	cut_ei.wav
2	73	1	1	1	C	1	1	1185	1	Ⴔ	cut_ui.wav
2	74	4	4	2	I	1	0	940	1	Ⴏ	cut_r.wav
2	75	3	3	2	I	1	0	1087	0	Ⴉ	cut_ei.wav
2	76	2	1	0	C	2	1	858	1	Ⴐ	cut_ui.wav
2	77	3	4	2	I	2	0	1213	1	Ⴉ	cut_r.wav
2	78	1	2	0	C	2	1	755	1	Ⴔ	cut_f.wav
2	79	4	3	2	I	2	0	832	0	Ⴏ	cut_ei.wav
2	80	2	2	1	C	1	1	998	1	Ⴐ	cut_f.wav
2	81	4	4	2	I	1	0	889	0	Ⴏ	cut_r.wav
2	82	2	1	0	C	2	1	789	1	Ⴐ	cut_ui.wav
2	83	3	3	2	I	2	0	935	1	Ⴉ	cut_ei.wav
2	84	1	2	0	C	2	1	1166	1	Ⴔ	cut_f.wav
2	85	2	2	1	C	1	1	783	1	Ⴐ	cut_f.wav
2	86	3	4	2	I	2	0	1239	0	Ⴉ	cut_r.wav
2	87	1	1	1	C	1	1	1171	1	Ⴔ	cut_ui.wav
2	88	4	3	2	I	2	0	856	1	Ⴏ	cut_ei.wav
2	89	2	1	0	C	2	1	956	1	Ⴐ	cut_ui.wav
2	90	3	3	2	I	1	0	1035	1	Ⴉ	cut_ei.wav
2	91	4	3	2	I	1	0	842	1	Ⴏ	cut_ei.wav
2	92	1	2	0	C	2	1	798	1	Ⴔ	cut_f.wav
2	93	2	2	1	C	1	1	698	1	Ⴐ	cut_f.wav
2	94	4	4	2	I	1	0	821	1	Ⴏ	cut_r.wav
2	95	1	1	1	C	1	1	982	1	Ⴔ	cut_ui.wav
2	96	3	4	2	I	2	0	683	0	Ⴉ	cut_r.wav
2	97	1	2	0	C	2	1	709	1	Ⴔ	cut_f.wav
2	98	4	3	2	I	2	0	750	1	Ⴏ	cut_ei.wav
2	99	2	1	0	C	2	1	757	1	Ⴐ	cut_ui.wav
2	100	3	4	2	I	2	0	811	0	Ⴉ	cut_r.wav
2	101	2	2	1	C	1	1	905	1	Ⴐ	cut_f.wav
2	102	1	1	1	C	1	1	765	1	Ⴔ	cut_ui.wav
2	103	3	3	2	I	2	0	872	0	Ⴉ	cut_ei.wav
2	104	4	4	2	I	1	0	1169	0	Ⴏ	cut_r.wav
2	105	3	4	2	I	2	0	876	1	Ⴉ	cut_r.wav
2	106	2	1	0	C	2	1	655	1	Ⴐ	cut_ui.wav
2	107	4	4	2	I	1	0	1008	0	Ⴏ	cut_r.wav
2	108	1	1	1	C	1	1	1299	1	Ⴔ	cut_ui.wav
2	109	3	3	2	I	2	0	1040	1	Ⴉ	cut_ei.wav
2	110	4	3	2	I	1	0	602	0	Ⴏ	cut_ei.wav
2	111	1	2	0	C	2	1	1130	1	Ⴔ	cut_f.wav
2	112	2	2	1	C	1	1	815	1	Ⴐ	cut_f.wav
2	113	4	3	2	I	2	0	782	0	Ⴏ	cut_ei.wav
2	114	1	2	0	C	2	1	1382	1	Ⴔ	cut_f.wav
2	115	2	1	0	C	1	0	1651	0	Ⴐ	cut_ui.wav
2	116	3	4	2	I	2	0	1099	1	Ⴉ	cut_r.wav
2	117	2	2	1	C	1	1	1246	1	Ⴐ	cut_f.wav
2	118	3	3	2	I	2	0	1201	0	Ⴉ	cut_ei.wav
2	119	1	1	1	C	1	1	1307	1	Ⴔ	cut_ui.wav
2	120	4	4	2	I	1	0	1448	0	Ⴏ	cut_r.wav
2	121	3	4	2	I	2	0	856	1	Ⴉ	cut_r.wav
2	122	4	3	2	I	2	0	786	1	Ⴏ	cut_ei.wav
2	123	2	2	1	C	1	1	1091	1	Ⴐ	cut_f.wav
2	124	1	2	0	C	2	1	1097	1	Ⴔ	cut_f.wav
2	125	3	3	2	I	2	0	731	1	Ⴉ	cut_ei.wav
2	126	1	1	1	C	1	1	845	1	Ⴔ	cut_ui.wav
2	127	4	4	2	I	2	0	486	0	Ⴏ	cut_r.wav
2	128	2	1	0	C	2	1	887	1	Ⴐ	cut_ui.wav
2	129	1	2	0	C	2	1	1039	1	Ⴔ	cut_f.wav
2	130	4	4	2	I	2	0	776	0	Ⴏ	cut_r.wav
2	131	3	4	2	I	2	0	592	1	Ⴉ	cut_r.wav
2	132	2	1	0	C	2	1	977	1	Ⴐ	cut_ui.wav
2	133	4	3	2	I	2	0	906	1	Ⴏ	cut_ei.wav
2	134	2	2	1	C	1	1	1111	1	Ⴐ	cut_f.wav
2	135	3	3	2	I	2	0	777	0	Ⴉ	cut_ei.wav
2	136	1	1	1	C	1	1	1055	1	Ⴔ	cut_ui.wav
2	137	4	4	2	I	2	0	993	1	Ⴏ	cut_r.wav
2	138	2	2	1	C	1	1	905	1	Ⴐ	cut_f.wav
2	139	3	3	2	I	2	0	1022	1	Ⴉ	cut_ei.wav
2	140	1	2	0	C	1	0	931	0	Ⴔ	cut_f.wav
2	141	3	4	2	I	1	0	1014	0	Ⴉ	cut_r.wav
2	142	4	3	2	I	2	0	1001	1	Ⴏ	cut_ei.wav
2	143	1	1	1	C	1	1	1254	1	Ⴔ	cut_ui.wav
2	144	2	1	0	C	2	1	859	1	Ⴐ	cut_ui.wav
2	145	3	4	2	I	2	0	768	1	Ⴉ	cut_r.wav
2	146	1	1	1	C	1	1	1188	1	Ⴔ	cut_ui.wav
2	147	4	3	2	I	2	0	961	0	Ⴏ	cut_ei.wav
2	148	2	2	1	C	1	1	930	1	Ⴐ	cut_f.wav
2	149	3	3	2	I	2	0	872	1	Ⴉ	cut_ei.wav
2	150	1	2	0	C	2	1	1012	1	Ⴔ	cut_f.wav
2	151	2	1	0	C	2	1	905	1	Ⴐ	cut_ui.wav
2	152	4	4	2	I	1	0	1779	1	Ⴏ	cut_r.wav
2	153	2	2	1	C	1	1	955	1	Ⴐ	cut_f.wav
2	154	3	4	2	I	2	0	1290	0	Ⴉ	cut_r.wav
2	155	4	4	2	I	2	0	942	0	Ⴏ	cut_r.wav
2	156	1	1	1	C	0	0	0	0	Ⴔ	cut_ui.wav
2	157	4	3	2	I	2	0	728	0	Ⴏ	cut_ei.wav
2	158	1	2	0	C	2	1	806	1	Ⴔ	cut_f.wav
2	159	3	3	2	I	2	0	975	0	Ⴉ	cut_ei.wav
2	160	2	1	0	C	2	1	726	1	Ⴐ	cut_ui.wav
2	161	4	4	2	I	1	0	1165	1	Ⴏ	cut_r.wav
2	162	3	4	2	I	1	0	1008	1	Ⴉ	cut_r.wav
2	163	1	1	1	C	1	1	904	1	Ⴔ	cut_ui.wav
2	164	2	1	0	C	2	1	582	1	Ⴐ	cut_ui.wav
2	165	1	2	0	C	2	1	1042	1	Ⴔ	cut_f.wav
2	166	4	3	2	I	2	0	824	0	Ⴏ	cut_ei.wav
2	167	2	2	1	C	1	1	986	1	Ⴐ	cut_f.wav
2	168	3	3	2	I	2	0	702	0	Ⴉ	cut_ei.wav
2	169	2	2	1	C	1	1	890	1	Ⴐ	cut_f.wav
2	170	4	4	2	I	2	0	1104	1	Ⴏ	cut_r.wav
2	171	3	3	2	I	2	0	518	0	Ⴉ	cut_ei.wav
2	172	1	2	0	C	2	1	870	1	Ⴔ	cut_f.wav
2	173	3	4	2	I	2	0	959	0	Ⴉ	cut_r.wav
2	174	2	1	0	C	1	0	816	0	Ⴐ	cut_ui.wav
2	175	1	1	1	C	1	1	870	1	Ⴔ	cut_ui.wav
2	176	4	3	2	I	2	0	1018	0	Ⴏ	cut_ei.wav
2	177	2	1	0	C	2	1	949	1	Ⴐ	cut_ui.wav
2	178	1	2	0	C	2	1	742	1	Ⴔ	cut_f.wav
2	179	4	4	2	I	2	0	1047	0	Ⴏ	cut_r.wav
2	180	3	3	2	I	2	0	592	1	Ⴉ	cut_ei.wav
2	181	1	1	1	C	1	1	1093	1	Ⴔ	cut_ui.wav
2	182	4	3	2	I	2	0	848	1	Ⴏ	cut_ei.wav
2	183	3	4	2	I	2	0	1730	1	Ⴉ	cut_r.wav
2	184	2	2	1	C	1	1	1081	1	Ⴐ	cut_f.wav
2	185	3	3	2	I	2	0	1117	0	Ⴉ	cut_ei.wav
2	186	1	2	0	C	2	1	934	1	Ⴔ	cut_f.wav
2	187	4	4	2	I	2	0	1238	0	Ⴏ	cut_r.wav
2	188	2	1	0	C	2	1	882	1	Ⴐ	cut_ui.wav
2	189	1	1	1	C	1	1	1094	1	Ⴔ	cut_ui.wav
2	190	4	3	2	I	2	0	788	0	Ⴏ	cut_ei.wav
2	191	2	2	1	C	1	1	810	1	Ⴐ	cut_f.wav
2	192	3	4	2	I	1	0	1384	0	Ⴉ	cut_r.wav
2	193	1	2	0	C	2	1	1143	1	Ⴔ	cut_f.wav
2	194	4	3	2	I	2	0	1157	1	Ⴏ	cut_ei.wav
2	195	3	4	2	I	2	0	818	0	Ⴉ	cut_r.wav
2	196	2	1	0	C	2	1	795	1	Ⴐ	cut_ui.wav
2	197	4	4	2	I	1	0	1103	1	Ⴏ	cut_r.wav
2	198	2	2	1	C	1	1	1662	1	Ⴐ	cut_f.wav
2	199	3	3	2	I	2	0	1056	0	Ⴉ	cut_ei.wav
2	200	1	1	1	C	1	1	1140	1	Ⴔ	cut_ui.wav
3	1	3	4	2	I	2	0	1440	1	Ⴁ	cut_n.wav
3	2	4	4	2	I	1	0	794	1	Ⴊ	cut_n.wav
3	3	1	1	1	C	1	1	897	1	Ⴃ	cut_s.wav
3	4	2	1	0	C	2	1	972	1	Ⴇ	cut_s.wav
3	5	1	2	0	C	1	0	761	0	Ⴃ	cut_oei.wav
3	6	4	3	2	I	2	0	1250	0	Ⴊ	cut_j.wav
3	7	3	3	2	I	2	0	654	1	Ⴁ	cut_j.wav
3	8	2	2	1	C	2	0	887	0	Ⴇ	cut_oei.wav
3	9	3	3	2	I	2	0	844	1	Ⴁ	cut_j.wav
3	10	1	2	0	C	2	1	801	1	Ⴃ	cut_oei.wav
3	11	4	4	2	I	2	0	817	1	Ⴊ	cut_n.wav
3	12	2	1	0	C	2	1	800	1	Ⴇ	cut_s.wav
3	13	3	4	2	I	1	0	973	0	Ⴁ	cut_n.wav
3	14	2	2	1	C	1	1	1299	1	Ⴇ	cut_oei.wav
3	15	4	3	2	I	2	0	1214	1	Ⴊ	cut_j.wav
3	16	1	1	1	C	1	1	1029	1	Ⴃ	cut_s.wav
3	17	4	3	2	I	1	0	1192	0	Ⴊ	cut_j.wav
3	18	3	4	2	I	1	0	1486	1	Ⴁ	cut_n.wav
3	19	2	1	0	C	2	1	1654	1	Ⴇ	cut_s.wav
3	20	1	1	1	C	1	1	743	1	Ⴃ	cut_s.wav
3	21	2	2	1	C	1	1	873	1	Ⴇ	cut_oei.wav
3	22	3	3	2	I	2	0	855	1	Ⴁ	cut_j.wav
3	23	4	4	2	I	1	0	1436	0	Ⴊ	cut_n.wav
3	24	1	2	0	C	1	0	1391	0	Ⴃ	cut_oei.wav
3	25	2	2	1	C	1	1	895	1	Ⴇ	cut_oei.wav
3	26	1	1	1	C	1	1	818	1	Ⴃ	cut_s.wav
3	27	4	3	2	I	2	0	844	1	Ⴊ	cut_j.wav
3	28	3	4	2	I	1	0	1698	0	Ⴁ	cut_n.wav
3	29	1	2	0	C	2	1	1070	1	Ⴃ	cut_oei.wav
3	30	4	4	2	I	2	0	977	1	Ⴊ	cut_n.wav
3	31	3	3	2	I	2	0	614	1	Ⴁ	cut_j.wav
3	32	2	1	0	C	2	1	692	1	Ⴇ	cut_s.wav
3	33	4	4	2	I	2	0	1188	0	Ⴊ	cut_n.wav
3	34	3	3	2	I	2	0	835	0	Ⴁ	cut_j.wav
3	35	1	1	1	C	2	0	1090	0	Ⴃ	cut_s.wav
3	36	2	1	0	C	1	0	1225	0	Ⴇ	cut_s.wav
3	37	1	2	0	C	1	0	1230	0	Ⴃ	cut_oei.wav
3	38	3	4	2	I	1	0	848	1	Ⴁ	cut_n.wav
3	39	4	3	2	I	2	0	964	0	Ⴊ	cut_j.wav
3	40	2	2	1	C	1	1	961	1	Ⴇ	cut_oei.wav
3	41	3	4	2	I	1	0	880	0	Ⴁ	cut_n.wav
3	42	1	2	0	C	2	1	988	1	Ⴃ	cut_oei.wav
3	43	2	1	0	C	2	1	836	1	Ⴇ	cut_s.wav
3	44	4	4	2	I	2	0	1210	0	Ⴊ	cut_n.wav
3	45	1	1	1	C	1	1	1377	1	Ⴃ	cut_s.wav
3	46	4	3	2	I	1	0	1043	0	Ⴊ	cut_j.wav
3	47	2	2	1	C	1	1	1251	1	Ⴇ	cut_oei.wav
3	48	3	3	2	I	2	0	842	1	Ⴁ	cut_j.wav
3	49	1	2	0	C	2	1	1042	1	Ⴃ	cut_oei.wav
3	50	2	2	1	C	1	1	927	1	Ⴇ	cut_oei.wav
3	51	4	4	2	I	2	0	720	0	Ⴊ	cut_n.wav
3	52	3	4	2	I	2	0	562	1	Ⴁ	cut_n.wav
3	53	2	1	0	C	2	1	712	1	Ⴇ	cut_s.wav
3	54	1	1	1	C	1	1	816	1	Ⴃ	cut_s.wav
3	55	4	3	2	I	2	0	1093	0	Ⴊ	cut_j.wav
3	56	3	3	2	I	2	0	621	0	Ⴁ	cut_j.wav
3	57	4	3	2	I	1	0	1931	0	Ⴊ	cut_j.wav
3	58	1	2	0	C	2	1	941	1	Ⴃ	cut_oei.wav
3	59	2	1	0	C	2	1	445	1	Ⴇ	cut_s.wav
3	60	3	3	2	I	2	0	714	0	Ⴁ	cut_j.wav
3	61	1	1	1	C	1	1	1298	1	Ⴃ	cut_s.wav
3	62	4	4	2	I	1	0	1170	1	Ⴊ	cut_n.wav
3	63	3	4	2	I	2	0	1069	0	Ⴁ	cut_n.wav
3	64	2	2	1	C	1	1	1321	1	Ⴇ	cut_oei.wav
3	65	3	4	2	I	2	0	1088	1	Ⴁ	cut_n.wav
3	66	2	1	0	C	2	1	748	1	Ⴇ	cut_s.wav
3	67	1	2	0	C	2	1	787	1	Ⴃ	cut_oei.wav
3	68	4	4	2	I	2	0	761	1	Ⴊ	cut_n.wav
3	69	1	1	1	C	2	0	1109	0	Ⴃ	cut_s.wav
3	70	4	3	2	I	2	0	1249	1	Ⴊ	cut_j.wav
3	71	3	3	2	I	1	0	833	0	Ⴁ	cut_j.wav
3	72	2	2	1	C	1	1	1082	1	Ⴇ	cut_oei.wav
3	73	4	4	2	I	2	0	937	1	Ⴊ	cut_n.wav
3	74	3	4	2	I	1	0	867	1	Ⴁ	cut_n.wav
3	75	1	1	1	C	1	1	1385	1	Ⴃ	cut_s.wav
3	76	2	1	0	C	1	0	864	0	Ⴇ	cut_s.wav
3	77	1	2	0	C	2	1	613	1	Ⴃ	cut_oei.wav
3	78	2	2	1	C	1	1	685	1	Ⴇ	cut_oei.wav
3	79	4	3	2	I	2	0	1105	1	Ⴊ	cut_j.wav
3	80	3	3	2	I	1	0	931	1	Ⴁ	cut_j.wav
3	81	4	3	2	I	2	0	1242	0	Ⴊ	cut_j.wav
3	82	2	2	1	C	1	1	1135	1	Ⴇ	cut_oei.wav
3	83	1	2	0	C	2	1	517	1	Ⴃ	cut_oei.wav
3	84	3	4	2	I	2	0	1180	0	Ⴁ	cut_n.wav
3	85	2	1	0	C	2	1	1024	1	Ⴇ	cut_s.wav
3	86	4	4	2	I	2	0	963	1	Ⴊ	cut_n.wav
3	87	3	3	2	I	1	0	573	0	Ⴁ	cut_j.wav
3	88	1	1	1	C	1	1	1537	1	Ⴃ	cut_s.wav
3	89	2	1	0	C	2	1	949	1	Ⴇ	cut_s.wav
3	90	4	4	2	I	2	0	865	1	Ⴊ	cut_n.wav
3	91	1	2	0	C	2	1	837	1	Ⴃ	cut_oei.wav
3	92	3	4	2	I	1	0	1106	0	Ⴁ	cut_n.wav
3	93	1	1	1	C	1	1	1685	1	Ⴃ	cut_s.wav
3	94	3	3	2	I	2	0	998	1	Ⴁ	cut_j.wav
3	95	4	3	2	I	1	0	804	1	Ⴊ	cut_j.wav
3	96	2	2	1	C	1	1	1482	1	Ⴇ	cut_oei.wav
3	97	4	4	2	I	2	0	1456	1	Ⴊ	cut_n.wav
3	98	1	2	0	C	2	1	1122	1	Ⴃ	cut_oei.wav
3	99	2	1	0	C	2	1	638	1	Ⴇ	cut_s.wav
3	100	3	4	2	I	1	0	961	0	Ⴁ	cut_n.wav
3	101	2	2	1	C	1	1	1071	1	Ⴇ	cut_oei.wav
3	102	4	3	2	I	2	0	1490	1	Ⴊ	cut_j.wav
3	103	3	3	2	I	1	0	911	0	Ⴁ	cut_j.wav
3	104	1	1	1	C	1	1	1168	1	Ⴃ	cut_s.wav
3	105	3	4	2	I	2	0	1196	0	Ⴁ	cut_n.wav
3	106	1	1	1	C	1	1	1193	1	Ⴃ	cut_s.wav
3	107	4	3	2	I	2	0	1380	1	Ⴊ	cut_j.wav
3	108	2	1	0	C	2	1	1256	1	Ⴇ	cut_s.wav
3	109	1	2	0	C	2	1	772	1	Ⴃ	cut_oei.wav
3	110	3	3	2	I	1	0	1131	1	Ⴁ	cut_j.wav
3	111	2	2	1	C	2	0	1116	0	Ⴇ	cut_oei.wav
3	112	4	4	2	I	2	0	965	0	Ⴊ	cut_n.wav
3	113	3	4	2	I	2	0	770	0	Ⴁ	cut_n.wav
3	114	4	4	2	I	2	0	937	1	Ⴊ	cut_n.wav
3	115	2	2	1	C	1	1	1030	1	Ⴇ	cut_oei.wav
3	116	1	2	0	C	1	0	1174	0	Ⴃ	cut_oei.wav
3	117	2	1	0	C	2	1	595	1	Ⴇ	cut_s.wav
3	118	4	3	2	I	1	0	1015	1	Ⴊ	cut_j.wav
3	119	3	3	2	I	2	0	1134	0	Ⴁ	cut_j.wav
3	120	1	1	1	C	1	1	1306	1	Ⴃ	cut_s.wav
3	121	2	1	0	C	2	1	896	1	Ⴇ	cut_s.wav
3	122	3	3	2	I	2	0	838	1	Ⴁ	cut_j.wav
3	123	4	4	2	I	2	0	680	0	Ⴊ	cut_n.wav
3	124	1	1	1	C	1	1	1069	1	Ⴃ	cut_s.wav
3	125	3	4	2	I	2	0	1065	1	Ⴁ	cut_n.wav
3	126	2	2	1	C	1	1	1037	1	Ⴇ	cut_oei.wav
3	127	1	2	0	C	2	1	755	1	Ⴃ	cut_oei.wav
3	128	4	3	2	I	2	0	1036	1	Ⴊ	cut_j.wav
3	129	2	2	1	C	1	1	953	1	Ⴇ	cut_oei.wav
3	130	4	4	2	I	2	0	1102	0	Ⴊ	cut_n.wav
3	131	1	2	0	C	2	1	888	1	Ⴃ	cut_oei.wav
3	132	3	3	2	I	2	0	925	1	Ⴁ	cut_j.wav
3	133	4	3	2	I	1	0	852	1	Ⴊ	cut_j.wav
3	134	3	4	2	I	1	0	1134	1	Ⴁ	cut_n.wav
3	135	2	1	0	C	2	1	818	1	Ⴇ	cut_s.wav
3	136	1	1	1	C	1	1	730	1	Ⴃ	cut_s.wav
3	137	4	4	2	I	2	0	1023	0	Ⴊ	cut_n.wav
3	138	1	1	1	C	1	1	913	1	Ⴃ	cut_s.wav
3	139	3	3	2	I	2	0	851	1	Ⴁ	cut_j.wav
3	140	2	2	1	C	1	1	1035	1	Ⴇ	cut_oei.wav
3	141	3	4	2	I	2	0	1017	0	Ⴁ	cut_n.wav
3	142	1	2	0	C	2	1	939	1	Ⴃ	cut_oei.wav
3	143	2	1	0	C	2	1	806	1	Ⴇ	cut_s.wav
3	144	4	3	2	I	2	0	903	1	Ⴊ	cut_j.wav
3	145	2	2	1	C	1	1	865	1	Ⴇ	cut_oei.wav
3	146	4	3	2	I	2	0	963	0	Ⴊ	cut_j.wav
3	147	3	3	2	I	2	0	1102	0	Ⴁ	cut_j.wav
3	148	1	2	0	C	2	1	909	1	Ⴃ	cut_oei.wav
3	149	3	4	2	I	1	0	900	0	Ⴁ	cut_n.wav
3	150	1	1	1	C	1	1	1286	1	Ⴃ	cut_s.wav
3	151	2	1	0	C	2	1	510	1	Ⴇ	cut_s.wav
3	152	4	4	2	I	2	0	972	0	Ⴊ	cut_n.wav
3	153	3	3	2	I	1	0	1104	1	Ⴁ	cut_j.wav
3	154	4	3	2	I	2	0	1012	0	Ⴊ	cut_j.wav
3	155	2	1	0	C	2	1	1081	1	Ⴇ	cut_s.wav
3	156	1	2	0	C	2	1	581	1	Ⴃ	cut_oei.wav
3	157	4	4	2	I	2	0	858	1	Ⴊ	cut_n.wav
3	158	1	1	1	C	1	1	966	1	Ⴃ	cut_s.wav
3	159	3	4	2	I	1	0	823	1	Ⴁ	cut_n.wav
3	160	2	2	1	C	1	1	1117	1	Ⴇ	cut_oei.wav
3	161	3	3	2	I	2	0	1218	1	Ⴁ	cut_j.wav
3	162	2	1	0	C	2	1	612	1	Ⴇ	cut_s.wav
3	163	1	1	1	C	1	1	838	1	Ⴃ	cut_s.wav
3	164	4	3	2	I	2	0	1081	1	Ⴊ	cut_j.wav
3	165	2	2	1	C	1	1	987	1	Ⴇ	cut_oei.wav
3	166	1	2	0	C	2	1	523	1	Ⴃ	cut_oei.wav
3	167	4	4	2	I	2	0	747	0	Ⴊ	cut_n.wav
3	168	3	4	2	I	2	0	668	0	Ⴁ	cut_n.wav
3	169	2	2	1	C	1	1	1037	1	Ⴇ	cut_oei.wav
3	170	3	3	2	I	2	0	1199	1	Ⴁ	cut_j.wav
3	171	4	4	2	I	1	0	824	0	Ⴊ	cut_n.wav
3	172	1	2	0	C	2	1	840	1	Ⴃ	cut_oei.wav
3	173	3	4	2	I	1	0	1153	0	Ⴁ	cut_n.wav
3	174	1	1	1	C	2	0	970	0	Ⴃ	cut_s.wav
3	175	4	3	2	I	2	0	1267	1	Ⴊ	cut_j.wav
3	176	2	1	0	C	2	1	788	1	Ⴇ	cut_s.wav
3	177	3	4	2	I	1	0	1114	0	Ⴁ	cut_n.wav
3	178	2	1	0	C	2	1	988	1	Ⴇ	cut_s.wav
3	179	1	1	1	C	1	1	790	1	Ⴃ	cut_s.wav
3	180	4	3	2	I	2	0	1056	0	Ⴊ	cut_j.wav
3	181	1	2	0	C	2	1	936	1	Ⴃ	cut_oei.wav
3	182	3	3	2	I	2	0	844	1	Ⴁ	cut_j.wav
3	183	2	2	1	C	1	1	942	1	Ⴇ	cut_oei.wav
3	184	4	4	2	I	2	0	915	1	Ⴊ	cut_n.wav
3	185	2	1	0	C	2	1	835	1	Ⴇ	cut_s.wav
3	186	3	4	2	I	2	0	849	0	Ⴁ	cut_n.wav
3	187	4	3	2	I	2	0	1204	0	Ⴊ	cut_j.wav
3	188	1	1	1	C	1	1	1048	1	Ⴃ	cut_s.wav
3	189	4	4	2	I	1	0	1092	0	Ⴊ	cut_n.wav
3	190	3	3	2	I	2	0	955	0	Ⴁ	cut_j.wav
3	191	2	2	1	C	1	1	1201	1	Ⴇ	cut_oei.wav
3	192	1	2	0	C	2	1	421	1	Ⴃ	cut_oei.wav
3	193	3	3	2	I	2	0	1257	1	Ⴁ	cut_j.wav
3	194	4	3	2	I	1	0	758	0	Ⴊ	cut_j.wav
3	195	2	1	0	C	2	1	1086	1	Ⴇ	cut_s.wav
3	196	1	2	0	C	2	1	559	1	Ⴃ	cut_oei.wav
3	197	4	4	2	I	2	0	1070	0	Ⴊ	cut_n.wav
3	198	3	4	2	I	2	0	1003	0	Ⴁ	cut_n.wav
3	199	2	2	1	C	1	1	1157	1	Ⴇ	cut_oei.wav
3	200	1	1	1	C	1	1	1045	1	Ⴃ	cut_s.wav
4	1	1	1	1	C	2	0	1080	0	Ⴞ	cut_ooi.wav
4	2	3	4	2	I	1	0	1117	1	Ⴋ	cut_eeuw.wav
4	3	4	4	2	I	2	0	1211	0	Ⴥ	cut_eeuw.wav
4	4	2	1	0	C	1	0	1021	0	Ⴜ	cut_ooi.wav
4	5	4	3	2	I	1	0	1351	1	Ⴥ	cut_nk.wav
4	6	1	2	0	C	2	1	1301	1	Ⴞ	cut_ieuw.wav
4	7	2	2	1	C	1	1	987	1	Ⴜ	cut_ieuw.wav
4	8	3	3	2	I	2	0	1017	0	Ⴋ	cut_nk.wav
4	9	2	2	1	C	1	1	1055	1	Ⴜ	cut_ieuw.wav
4	10	1	1	1	C	1	1	1431	1	Ⴞ	cut_ooi.wav
4	11	3	3	2	I	2	0	834	0	Ⴋ	cut_nk.wav
4	12	4	4	2	I	2	0	1417	0	Ⴥ	cut_eeuw.wav
4	13	3	4	2	I	2	0	1161	1	Ⴋ	cut_eeuw.wav
4	14	4	3	2	I	2	0	936	1	Ⴥ	cut_nk.wav
4	15	2	1	0	C	2	1	1363	1	Ⴜ	cut_ooi.wav
4	16	1	2	0	C	1	0	1471	0	Ⴞ	cut_ieuw.wav
4	17	4	4	2	I	1	0	861	0	Ⴥ	cut_eeuw.wav
4	18	2	2	1	C	1	1	1286	1	Ⴜ	cut_ieuw.wav
4	19	3	4	2	I	2	0	847	0	Ⴋ	cut_eeuw.wav
4	20	1	1	1	C	2	0	1314	0	Ⴞ	cut_ooi.wav
4	21	3	3	2	I	1	0	1047	1	Ⴋ	cut_nk.wav
4	22	4	3	2	I	2	0	877	1	Ⴥ	cut_nk.wav
4	23	1	2	0	C	2	1	905	1	Ⴞ	cut_ieuw.wav
4	24	2	1	0	C	2	1	1040	1	Ⴜ	cut_ooi.wav
4	25	4	4	2	I	1	0	869	1	Ⴥ	cut_eeuw.wav
4	26	3	3	2	I	1	0	995	1	Ⴋ	cut_nk.wav
4	27	2	1	0	C	2	1	1208	1	Ⴜ	cut_ooi.wav
4	28	1	2	0	C	2	1	1150	1	Ⴞ	cut_ieuw.wav
4	29	3	4	2	I	2	0	933	0	Ⴋ	cut_eeuw.wav
4	30	1	1	1	C	2	0	860	0	Ⴞ	cut_ooi.wav
4	31	2	2	1	C	1	1	1328	1	Ⴜ	cut_ieuw.wav
4	32	4	3	2	I	2	0	905	1	Ⴥ	cut_nk.wav
4	33	3	4	2	I	2	0	1055	0	Ⴋ	cut_eeuw.wav
4	34	2	1	0	C	2	1	995	1	Ⴜ	cut_ooi.wav
4	35	4	3	2	I	2	0	745	1	Ⴥ	cut_nk.wav
4	36	1	1	1	C	1	1	1413	1	Ⴞ	cut_ooi.wav
4	37	3	3	2	I	1	0	886	1	Ⴋ	cut_nk.wav
4	38	1	2	0	C	2	1	1167	1	Ⴞ	cut_ieuw.wav
4	39	2	2	1	C	1	1	1340	1	Ⴜ	cut_ieuw.wav
4	40	4	4	2	I	1	0	970	1	Ⴥ	cut_eeuw.wav
4	41	3	4	2	I	2	0	647	0	Ⴋ	cut_eeuw.wav
4	42	2	2	1	C	2	0	948	0	Ⴜ	cut_ieuw.wav
4	43	1	1	1	C	1	1	1150	1	Ⴞ	cut_ooi.wav
4	44	4	4	2	I	1	0	845	0	Ⴥ	cut_eeuw.wav
4	45	1	2	0	C	1	0	1460	0	Ⴞ	cut_ieuw.wav
4	46	4	3	2	I	2	0	775	0	Ⴥ	cut_nk.wav
4	47	3	3	2	I	1	0	1186	1	Ⴋ	cut_nk.wav
4	48	2	1	0	C	2	1	1270	1	Ⴜ	cut_ooi.wav
4	49	1	2	0	C	1	0	998	0	Ⴞ	cut_ieuw.wav
4	50	3	3	2	I	1	0	1347	0	Ⴋ	cut_nk.wav
4	51	2	1	0	C	2	1	549	1	Ⴜ	cut_ooi.wav
4	52	4	3	2	I	2	0	748	1	Ⴥ	cut_nk.wav
4	53	2	2	1	C	2	0	901	0	Ⴜ	cut_ieuw.wav
4	54	1	1	1	C	1	1	1110	1	Ⴞ	cut_ooi.wav
4	55	3	4	2	I	2	0	899	1	Ⴋ	cut_eeuw.wav
4	56	4	4	2	I	1	0	921	0	Ⴥ	cut_eeuw.wav
4	57	1	1	1	C	1	1	1093	1	Ⴞ	cut_ooi.wav
4	58	3	3	2	I	1	0	995	0	Ⴋ	cut_nk.wav
4	59	2	2	1	C	1	1	1316	1	Ⴜ	cut_ieuw.wav
4	60	4	4	2	I	1	0	1067	1	Ⴥ	cut_eeuw.wav
4	61	3	4	2	I	2	0	920	0	Ⴋ	cut_eeuw.wav
4	62	1	2	0	C	2	1	1019	1	Ⴞ	cut_ieuw.wav
4	63	4	3	2	I	2	0	678	1	Ⴥ	cut_nk.wav
4	64	2	1	0	C	2	1	778	1	Ⴜ	cut_ooi.wav
4	65	3	4	2	I	2	0	652	0	Ⴋ	cut_eeuw.wav
4	66	2	1	0	C	2	1	748	1	Ⴜ	cut_ooi.wav
4	67	1	2	0	C	1	0	1252	0	Ⴞ	cut_ieuw.wav
4	68	4	4	2	I	2	0	1214	1	Ⴥ	cut_eeuw.wav
4	69	3	3	2	I	2	0	858	0	Ⴋ	cut_nk.wav
4	70	4	3	2	I	2	0	1147	0	Ⴥ	cut_nk.wav
4	71	1	1	1	C	1	1	1412	1	Ⴞ	cut_ooi.wav
4	72	2	2	1	C	1	1	1164	1	Ⴜ	cut_ieuw.wav
4	73	1	2	0	C	2	1	602	1	Ⴞ	cut_ieuw.wav
4	74	4	3	2	I	2	0	861	1	Ⴥ	cut_nk.wav
4	75	3	4	2	I	2	0	925	0	Ⴋ	cut_eeuw.wav
4	76	2	2	1	C	2	0	1110	0	Ⴜ	cut_ieuw.wav
4	77	4	4	2	I	2	0	1301	0	Ⴥ	cut_eeuw.wav
4	78	2	1	0	C	2	1	890	1	Ⴜ	cut_ooi.wav
4	79	1	1	1	C	1	1	771	1	Ⴞ	cut_ooi.wav
4	80	3	3	2	I	2	0	1368	1	Ⴋ	cut_nk.wav
4	81	1	1	1	C	1	1	976	1	Ⴞ	cut_ooi.wav
4	82	3	4	2	I	2	0	1252	0	Ⴋ	cut_eeuw.wav
4	83	4	4	2	I	2	0	1440	0	Ⴥ	cut_eeuw.wav
4	84	2	1	0	C	2	1	785	1	Ⴜ	cut_ooi.wav
4	85	4	3	2	I	2	0	948	1	Ⴥ	cut_nk.wav
4	86	1	2	0	C	1	0	1164	0	Ⴞ	cut_ieuw.wav
4	87	3	3	2	I	1	0	926	1	Ⴋ	cut_nk.wav
4	88	2	2	1	C	1	1	1248	1	Ⴜ	cut_ieuw.wav
4	89	4	4	2	I	1	0	1223	1	Ⴥ	cut_eeuw.wav
4	90	3	4	2	I	2	0	884	1	Ⴋ	cut_eeuw.wav
4	91	1	2	0	C	2	1	830	1	Ⴞ	cut_ieuw.wav
4	92	2	2	1	C	1	1	786	1	Ⴜ	cut_ieuw.wav
4	93	3	3	2	I	2	0	922	0	Ⴋ	cut_nk.wav
4	94	2	1	0	C	2	1	808	1	Ⴜ	cut_ooi.wav
4	95	1	1	1	C	1	1	568	1	Ⴞ	cut_ooi.wav
4	96	4	3	2	I	2	0	773	1	Ⴥ	cut_nk.wav
4	97	1	2	0	C	2	1	836	1	Ⴞ	cut_ieuw.wav
4	98	3	4	2	I	2	0	689	1	Ⴋ	cut_eeuw.wav
4	99	4	4	2	I	1	0	999	1	Ⴥ	cut_eeuw.wav
4	100	2	2	1	C	2	0	849	0	Ⴜ	cut_ieuw.wav
4	101	1	1	1	C	1	1	827	1	Ⴞ	cut_ooi.wav
4	102	3	3	2	I	2	0	876	0	Ⴋ	cut_nk.wav
4	103	4	3	2	I	2	0	781	0	Ⴥ	cut_nk.wav
4	104	2	1	0	C	2	1	697	1	Ⴜ	cut_ooi.wav
4	105	4	4	2	I	1	0	913	1	Ⴥ	cut_eeuw.wav
4	106	1	2	0	C	2	1	1006	1	Ⴞ	cut_ieuw.wav
4	107	3	3	2	I	2	0	902	1	Ⴋ	cut_nk.wav
4	108	2	1	0	C	2	1	814	1	Ⴜ	cut_ooi.wav
4	109	3	4	2	I	2	0	1445	1	Ⴋ	cut_eeuw.wav
4	110	2	2	1	C	1	1	783	1	Ⴜ	cut_ieuw.wav
4	111	1	1	1	C	1	1	1007	1	Ⴞ	cut_ooi.wav
4	112	4	3	2	I	2	0	780	0	Ⴥ	cut_nk.wav
4	113	2	2	1	C	1	1	968	1	Ⴜ	cut_ieuw.wav
4	114	3	3	2	I	2	0	970	0	Ⴋ	cut_nk.wav
4	115	4	4	2	I	1	0	1401	1	Ⴥ	cut_eeuw.wav
4	116	1	2	0	C	2	1	1000	1	Ⴞ	cut_ieuw.wav
4	117	4	3	2	I	2	0	785	1	Ⴥ	cut_nk.wav
4	118	3	4	2	I	2	0	897	1	Ⴋ	cut_eeuw.wav
4	119	2	1	0	C	2	1	765	1	Ⴜ	cut_ooi.wav
4	120	1	1	1	C	1	1	605	1	Ⴞ	cut_ooi.wav
4	121	4	4	2	I	1	0	1350	0	Ⴥ	cut_eeuw.wav
4	122	3	4	2	I	2	0	1293	1	Ⴋ	cut_eeuw.wav
4	123	1	2	0	C	2	1	828	1	Ⴞ	cut_ieuw.wav
4	124	2	1	0	C	2	1	721	1	Ⴜ	cut_ooi.wav
4	125	4	3	2	I	2	0	1173	1	Ⴥ	cut_nk.wav
4	126	1	1	1	C	2	0	1219	0	Ⴞ	cut_ooi.wav
4	127	3	3	2	I	2	0	1059	1	Ⴋ	cut_nk.wav
4	128	2	2	1	C	1	1	1259	1	Ⴜ	cut_ieuw.wav
4	129	1	1	1	C	1	1	1046	1	Ⴞ	cut_ooi.wav
4	130	2	2	1	C	2	0	1326	0	Ⴜ	cut_ieuw.wav
4	131	4	3	2	I	2	0	1070	1	Ⴥ	cut_nk.wav
4	132	3	4	2	I	2	0	863	1	Ⴋ	cut_eeuw.wav
4	133	1	2	0	C	1	0	1709	0	Ⴞ	cut_ieuw.wav
4	134	4	4	2	I	2	0	1518	0	Ⴥ	cut_eeuw.wav
4	135	3	3	2	I	2	0	1112	1	Ⴋ	cut_nk.wav
4	136	2	1	0	C	2	1	700	1	Ⴜ	cut_ooi.wav
4	137	4	4	2	I	1	0	1142	1	Ⴥ	cut_eeuw.wav
4	138	2	1	0	C	2	1	771	1	Ⴜ	cut_ooi.wav
4	139	3	3	2	I	2	0	946	0	Ⴋ	cut_nk.wav
4	140	1	2	0	C	1	0	989	0	Ⴞ	cut_ieuw.wav
4	141	3	4	2	I	2	0	900	0	Ⴋ	cut_eeuw.wav
4	142	1	1	1	C	1	1	1127	1	Ⴞ	cut_ooi.wav
4	143	4	3	2	I	2	0	732	0	Ⴥ	cut_nk.wav
4	144	2	2	1	C	1	1	1046	1	Ⴜ	cut_ieuw.wav
4	145	1	2	0	C	2	1	516	1	Ⴞ	cut_ieuw.wav
4	146	4	4	2	I	1	0	1166	0	Ⴥ	cut_eeuw.wav
4	147	2	1	0	C	2	1	984	1	Ⴜ	cut_ooi.wav
4	148	3	3	2	I	2	0	848	0	Ⴋ	cut_nk.wav
4	149	1	1	1	C	1	1	946	1	Ⴞ	cut_ooi.wav
4	150	2	2	1	C	1	1	1053	1	Ⴜ	cut_ieuw.wav
4	151	4	3	2	I	2	0	928	0	Ⴥ	cut_nk.wav
4	152	3	4	2	I	1	0	1159	1	Ⴋ	cut_eeuw.wav
4	153	4	4	2	I	2	0	1744	1	Ⴥ	cut_eeuw.wav
4	154	3	3	2	I	2	0	829	1	Ⴋ	cut_nk.wav
4	155	1	1	1	C	1	1	1145	1	Ⴞ	cut_ooi.wav
4	156	2	2	1	C	1	1	971	1	Ⴜ	cut_ieuw.wav
4	157	3	4	2	I	2	0	928	0	Ⴋ	cut_eeuw.wav
4	158	4	3	2	I	2	0	1358	0	Ⴥ	cut_nk.wav
4	159	1	2	0	C	1	0	779	0	Ⴞ	cut_ieuw.wav
4	160	2	1	0	C	2	1	1045	1	Ⴜ	cut_ooi.wav
4	161	1	2	0	C	2	1	492	1	Ⴞ	cut_ieuw.wav
4	162	4	4	2	I	2	0	1071	0	Ⴥ	cut_eeuw.wav
4	163	2	2	1	C	2	0	1014	0	Ⴜ	cut_ieuw.wav
4	164	3	3	2	I	1	0	1456	0	Ⴋ	cut_nk.wav
4	165	1	1	1	C	1	1	1266	1	Ⴞ	cut_ooi.wav
4	166	4	3	2	I	2	0	882	0	Ⴥ	cut_nk.wav
4	167	2	1	0	C	2	1	815	1	Ⴜ	cut_ooi.wav
4	168	3	4	2	I	1	0	1395	0	Ⴋ	cut_eeuw.wav
4	169	4	4	2	I	2	0	1281	0	Ⴥ	cut_eeuw.wav
4	170	1	1	1	C	1	1	1352	1	Ⴞ	cut_ooi.wav
4	171	2	2	1	C	1	1	1157	1	Ⴜ	cut_ieuw.wav
4	172	3	4	2	I	2	0	778	0	Ⴋ	cut_eeuw.wav
4	173	4	3	2	I	1	0	1097	1	Ⴥ	cut_nk.wav
4	174	2	1	0	C	2	1	910	1	Ⴜ	cut_ooi.wav
4	175	1	2	0	C	1	0	636	0	Ⴞ	cut_ieuw.wav
4	176	3	3	2	I	2	0	1205	1	Ⴋ	cut_nk.wav
4	177	1	2	0	C	2	1	1139	1	Ⴞ	cut_ieuw.wav
4	178	3	4	2	I	2	0	1935	1	Ⴋ	cut_eeuw.wav
4	179	4	3	2	I	2	0	853	1	Ⴥ	cut_nk.wav
4	180	2	1	0	C	2	1	602	1	Ⴜ	cut_ooi.wav
4	181	1	1	1	C	1	1	547	1	Ⴞ	cut_ooi.wav
4	182	2	2	1	C	1	1	1138	1	Ⴜ	cut_ieuw.wav
4	183	4	4	2	I	2	0	1375	0	Ⴥ	cut_eeuw.wav
4	184	3	3	2	I	2	0	1179	0	Ⴋ	cut_nk.wav
4	185	2	2	1	C	2	0	1560	0	Ⴜ	cut_ieuw.wav
4	186	3	4	2	I	2	0	1234	1	Ⴋ	cut_eeuw.wav
4	187	4	4	2	I	1	0	777	0	Ⴥ	cut_eeuw.wav
4	188	1	1	1	C	1	1	1665	1	Ⴞ	cut_ooi.wav
4	189	3	3	2	I	2	0	1345	1	Ⴋ	cut_nk.wav
4	190	2	1	0	C	2	1	732	1	Ⴜ	cut_ooi.wav
4	191	1	2	0	C	2	1	816	1	Ⴞ	cut_ieuw.wav
4	192	4	3	2	I	2	0	926	0	Ⴥ	cut_nk.wav
4	193	2	1	0	C	1	0	1089	0	Ⴜ	cut_ooi.wav
4	194	3	4	2	I	1	0	1428	0	Ⴋ	cut_eeuw.wav
4	195	1	1	1	C	1	1	1320	1	Ⴞ	cut_ooi.wav
4	196	4	3	2	I	2	0	923	0	Ⴥ	cut_nk.wav
4	197	2	2	1	C	1	1	970	1	Ⴜ	cut_ieuw.wav
4	198	3	3	2	I	1	0	1286	1	Ⴋ	cut_nk.wav
4	199	4	4	2	I	2	0	1088	0	Ⴥ	cut_eeuw.wav
4	200	1	2	0	C	2	1	578	1	Ⴞ	cut_ieuw.wav
5	1	4	3	2	I	2	0	1349	0	Ⴌ	cut_g.wav
5	2	1	1	1	C	2	0	1096	0	Ⴒ	cut_w.wav
5	3	3	4	2	I	2	0	997	0	Ⴕ	cut_l.wav
5	4	2	1	0	C	2	1	1017	1	Ⴖ	cut_w.wav
5	5	3	3	2	I	2	0	985	0	Ⴕ	cut_g.wav
5	6	2	2	1	C	1	1	874	1	Ⴖ	cut_h.wav
5	7	4	4	2	I	1	0	1193	0	Ⴌ	cut_l.wav
5	8	1	2	0	C	1	0	980	0	Ⴒ	cut_h.wav
5	9	3	3	2	I	1	0	880	0	Ⴕ	cut_g.wav
5	10	1	2	0	C	2	1	1125	1	Ⴒ	cut_h.wav
5	11	4	3	2	I	1	0	937	1	Ⴌ	cut_g.wav
5	12	2	2	1	C	1	1	1061	1	Ⴖ	cut_h.wav
5	13	3	4	2	I	2	0	1017	0	Ⴕ	cut_l.wav
5	14	1	1	1	C	1	1	1198	1	Ⴒ	cut_w.wav
5	15	2	1	0	C	2	1	1164	1	Ⴖ	cut_w.wav
5	16	4	4	2	I	1	0	1198	1	Ⴌ	cut_l.wav
5	17	3	3	2	I	1	0	877	1	Ⴕ	cut_g.wav
5	18	4	3	2	I	2	0	773	1	Ⴌ	cut_g.wav
5	19	1	2	0	C	1	0	808	0	Ⴒ	cut_h.wav
5	20	2	2	1	C	1	1	765	1	Ⴖ	cut_h.wav
5	21	3	4	2	I	2	0	747	0	Ⴕ	cut_l.wav
5	22	2	1	0	C	2	1	898	1	Ⴖ	cut_w.wav
5	23	1	1	1	C	1	1	705	1	Ⴒ	cut_w.wav
5	24	4	4	2	I	1	0	902	1	Ⴌ	cut_l.wav
5	25	2	2	1	C	1	1	1127	1	Ⴖ	cut_h.wav
5	26	1	2	0	C	1	0	1162	0	Ⴒ	cut_h.wav
5	27	4	4	2	I	1	0	783	0	Ⴌ	cut_l.wav
5	28	3	3	2	I	1	0	746	0	Ⴕ	cut_g.wav
5	29	4	3	2	I	2	0	1047	1	Ⴌ	cut_g.wav
5	30	2	1	0	C	2	1	844	1	Ⴖ	cut_w.wav
5	31	1	1	1	C	1	1	1085	1	Ⴒ	cut_w.wav
5	32	3	4	2	I	2	0	774	0	Ⴕ	cut_l.wav
5	33	4	3	2	I	2	0	828	1	Ⴌ	cut_g.wav
5	34	1	1	1	C	1	1	979	1	Ⴒ	cut_w.wav
5	35	2	1	0	C	2	1	589	1	Ⴖ	cut_w.wav
5	36	3	3	2	I	2	0	1036	1	Ⴕ	cut_g.wav
5	37	1	2	0	C	2	1	1191	1	Ⴒ	cut_h.wav
5	38	4	4	2	I	2	0	1086	1	Ⴌ	cut_l.wav
5	39	2	2	1	C	1	1	791	1	Ⴖ	cut_h.wav
5	40	3	4	2	I	1	0	918	1	Ⴕ	cut_l.wav
5	41	1	2	0	C	1	0	1332	0	Ⴒ	cut_h.wav
5	42	2	1	0	C	2	1	773	1	Ⴖ	cut_w.wav
5	43	3	4	2	I	1	0	878	1	Ⴕ	cut_l.wav
5	44	4	4	2	I	2	0	685	0	Ⴌ	cut_l.wav
5	45	1	1	1	C	1	1	882	1	Ⴒ	cut_w.wav
5	46	2	2	1	C	1	1	815	1	Ⴖ	cut_h.wav
5	47	4	3	2	I	2	0	535	0	Ⴌ	cut_g.wav
5	48	3	3	2	I	2	0	1005	1	Ⴕ	cut_g.wav
5	49	1	1	1	C	1	1	1152	1	Ⴒ	cut_w.wav
5	50	4	3	2	I	1	0	1333	0	Ⴌ	cut_g.wav
5	51	2	1	0	C	2	1	701	1	Ⴖ	cut_w.wav
5	52	3	3	2	I	2	0	1174	0	Ⴕ	cut_g.wav
5	53	1	2	0	C	2	1	838	1	Ⴒ	cut_h.wav
5	54	4	4	2	I	1	0	838	0	Ⴌ	cut_l.wav
5	55	3	4	2	I	2	0	565	1	Ⴕ	cut_l.wav
5	56	2	2	1	C	1	1	954	1	Ⴖ	cut_h.wav
5	57	1	2	0	C	2	1	579	1	Ⴒ	cut_h.wav
5	58	3	3	2	I	1	0	924	0	Ⴕ	cut_g.wav
5	59	2	1	0	C	2	1	825	1	Ⴖ	cut_w.wav
5	60	4	3	2	I	2	0	999	0	Ⴌ	cut_g.wav
5	61	2	2	1	C	1	1	861	1	Ⴖ	cut_h.wav
5	62	3	4	2	I	1	0	940	0	Ⴕ	cut_l.wav
5	63	1	1	1	C	1	1	1218	1	Ⴒ	cut_w.wav
5	64	4	4	2	I	2	0	1197	1	Ⴌ	cut_l.wav
5	65	3	4	2	I	1	0	685	0	Ⴕ	cut_l.wav
5	66	2	1	0	C	2	1	711	1	Ⴖ	cut_w.wav
5	67	4	3	2	I	2	0	822	1	Ⴌ	cut_g.wav
5	68	1	2	0	C	2	1	876	1	Ⴒ	cut_h.wav
5	69	3	3	2	I	1	0	675	0	Ⴕ	cut_g.wav
5	70	1	1	1	C	1	1	594	1	Ⴒ	cut_w.wav
5	71	2	2	1	C	1	1	913	1	Ⴖ	cut_h.wav
5	72	4	4	2	I	2	0	905	0	Ⴌ	cut_l.wav
5	73	3	4	2	I	2	0	410	1	Ⴕ	cut_l.wav
5	74	2	1	0	C	2	1	754	1	Ⴖ	cut_w.wav
5	75	4	3	2	I	1	0	808	0	Ⴌ	cut_g.wav
5	76	1	1	1	C	1	1	1420	1	Ⴒ	cut_w.wav
5	77	4	4	2	I	1	0	1088	0	Ⴌ	cut_l.wav
5	78	2	2	1	C	1	1	830	1	Ⴖ	cut_h.wav
5	79	3	3	2	I	2	0	822	1	Ⴕ	cut_g.wav
5	80	1	2	0	C	1	0	933	0	Ⴒ	cut_h.wav
5	81	3	4	2	I	1	0	840	0	Ⴕ	cut_l.wav
5	82	1	2	0	C	1	0	846	0	Ⴒ	cut_h.wav
5	83	4	3	2	I	2	0	1071	0	Ⴌ	cut_g.wav
5	84	2	2	1	C	1	1	629	1	Ⴖ	cut_h.wav
5	85	4	4	2	I	1	0	1001	1	Ⴌ	cut_l.wav
5	86	1	1	1	C	2	0	1123	0	Ⴒ	cut_w.wav
5	87	3	3	2	I	2	0	1145	0	Ⴕ	cut_g.wav
5	88	2	1	0	C	2	1	708	1	Ⴖ	cut_w.wav
5	89	3	4	2	I	2	0	943	1	Ⴕ	cut_l.wav
5	90	4	3	2	I	2	0	695	0	Ⴌ	cut_g.wav
5	91	1	2	0	C	2	1	950	1	Ⴒ	cut_h.wav
5	92	2	1	0	C	2	1	470	1	Ⴖ	cut_w.wav
5	93	1	1	1	C	1	1	583	1	Ⴒ	cut_w.wav
5	94	2	2	1	C	1	1	977	1	Ⴖ	cut_h.wav
5	95	4	4	2	I	1	0	914	0	Ⴌ	cut_l.wav
5	96	3	3	2	I	1	0	1034	1	Ⴕ	cut_g.wav
5	97	4	3	2	I	2	0	932	0	Ⴌ	cut_g.wav
5	98	3	4	2	I	2	0	891	0	Ⴕ	cut_l.wav
5	99	1	1	1	C	1	1	1335	1	Ⴒ	cut_w.wav
5	100	2	2	1	C	1	1	760	1	Ⴖ	cut_h.wav
5	101	4	4	2	I	2	0	1502	1	Ⴌ	cut_l.wav
5	102	2	1	0	C	2	1	770	1	Ⴖ	cut_w.wav
5	103	3	3	2	I	2	0	684	1	Ⴕ	cut_g.wav
5	104	1	2	0	C	2	1	1038	1	Ⴒ	cut_h.wav
5	105	4	3	2	I	2	0	890	1	Ⴌ	cut_g.wav
5	106	3	4	2	I	2	0	1107	1	Ⴕ	cut_l.wav
5	107	1	2	0	C	2	1	829	1	Ⴒ	cut_h.wav
5	108	2	2	1	C	1	1	781	1	Ⴖ	cut_h.wav
5	109	1	1	1	C	1	1	852	1	Ⴒ	cut_w.wav
5	110	4	4	2	I	2	0	833	0	Ⴌ	cut_l.wav
5	111	2	1	0	C	2	1	714	1	Ⴖ	cut_w.wav
5	112	3	3	2	I	2	0	888	0	Ⴕ	cut_g.wav
5	113	2	2	1	C	1	1	937	1	Ⴖ	cut_h.wav
5	114	4	4	2	I	1	0	1032	0	Ⴌ	cut_l.wav
5	115	1	1	1	C	2	0	1338	0	Ⴒ	cut_w.wav
5	116	3	3	2	I	2	0	989	1	Ⴕ	cut_g.wav
5	117	2	1	0	C	2	1	656	1	Ⴖ	cut_w.wav
5	118	1	2	0	C	2	1	870	1	Ⴒ	cut_h.wav
5	119	4	3	2	I	2	0	1085	0	Ⴌ	cut_g.wav
5	120	3	4	2	I	2	0	898	0	Ⴕ	cut_l.wav
5	121	4	4	2	I	2	0	1152	0	Ⴌ	cut_l.wav
5	122	3	3	2	I	2	0	1130	1	Ⴕ	cut_g.wav
5	123	2	1	0	C	2	1	625	1	Ⴖ	cut_w.wav
5	124	1	1	1	C	1	1	905	1	Ⴒ	cut_w.wav
5	125	3	4	2	I	1	0	961	0	Ⴕ	cut_l.wav
5	126	2	2	1	C	1	1	766	1	Ⴖ	cut_h.wav
5	127	4	3	2	I	2	0	1174	1	Ⴌ	cut_g.wav
5	128	1	2	0	C	2	1	1094	1	Ⴒ	cut_h.wav
5	129	3	4	2	I	2	0	889	1	Ⴕ	cut_l.wav
5	130	4	3	2	I	2	0	757	0	Ⴌ	cut_g.wav
5	131	1	1	1	C	1	1	967	1	Ⴒ	cut_w.wav
5	132	2	2	1	C	1	1	752	1	Ⴖ	cut_h.wav
5	133	1	2	0	C	2	1	1295	1	Ⴒ	cut_h.wav
5	134	3	3	2	I	2	0	990	0	Ⴕ	cut_g.wav
5	135	4	4	2	I	1	0	836	0	Ⴌ	cut_l.wav
5	136	2	1	0	C	2	1	654	1	Ⴖ	cut_w.wav
5	137	4	3	2	I	2	0	813	1	Ⴌ	cut_g.wav
5	138	3	4	2	I	2	0	468	1	Ⴕ	cut_l.wav
5	139	2	1	0	C	2	1	690	1	Ⴖ	cut_w.wav
5	140	1	2	0	C	2	1	883	1	Ⴒ	cut_h.wav
5	141	3	3	2	I	1	0	895	1	Ⴕ	cut_g.wav
5	142	1	1	1	C	1	1	983	1	Ⴒ	cut_w.wav
5	143	4	4	2	I	1	0	913	1	Ⴌ	cut_l.wav
5	144	2	2	1	C	1	1	733	1	Ⴖ	cut_h.wav
5	145	4	4	2	I	2	0	969	1	Ⴌ	cut_l.wav
5	146	1	1	1	C	1	1	964	1	Ⴒ	cut_w.wav
5	147	3	4	2	I	2	0	823	1	Ⴕ	cut_l.wav
5	148	2	1	0	C	2	1	758	1	Ⴖ	cut_w.wav
5	149	4	3	2	I	1	0	1309	0	Ⴌ	cut_g.wav
5	150	3	3	2	I	1	0	1341	0	Ⴕ	cut_g.wav
5	151	2	2	1	C	1	1	907	1	Ⴖ	cut_h.wav
5	152	1	2	0	C	2	1	880	1	Ⴒ	cut_h.wav
5	153	2	1	0	C	2	1	662	1	Ⴖ	cut_w.wav
5	154	1	1	1	C	2	0	1120	0	Ⴒ	cut_w.wav
5	155	4	4	2	I	2	0	1042	0	Ⴌ	cut_l.wav
5	156	3	4	2	I	2	0	859	0	Ⴕ	cut_l.wav
5	157	2	2	1	C	1	1	811	1	Ⴖ	cut_h.wav
5	158	4	3	2	I	2	0	876	1	Ⴌ	cut_g.wav
5	159	3	3	2	I	2	0	1296	1	Ⴕ	cut_g.wav
5	160	1	2	0	C	2	1	1056	1	Ⴒ	cut_h.wav
5	161	4	3	2	I	2	0	796	1	Ⴌ	cut_g.wav
5	162	3	4	2	I	2	0	802	1	Ⴕ	cut_l.wav
5	163	2	2	1	C	1	1	1058	1	Ⴖ	cut_h.wav
5	164	1	2	0	C	2	1	880	1	Ⴒ	cut_h.wav
5	165	3	3	2	I	2	0	807	0	Ⴕ	cut_g.wav
5	166	2	1	0	C	2	1	731	1	Ⴖ	cut_w.wav
5	167	4	4	2	I	1	0	1150	1	Ⴌ	cut_l.wav
5	168	1	1	1	C	2	0	779	0	Ⴒ	cut_w.wav
5	169	3	3	2	I	1	0	962	0	Ⴕ	cut_g.wav
5	170	2	1	0	C	2	1	677	1	Ⴖ	cut_w.wav
5	171	4	4	2	I	2	0	863	1	Ⴌ	cut_l.wav
5	172	1	1	1	C	2	0	774	0	Ⴒ	cut_w.wav
5	173	3	4	2	I	2	0	1699	1	Ⴕ	cut_l.wav
5	174	2	2	1	C	1	1	751	1	Ⴖ	cut_h.wav
5	175	1	2	0	C	2	1	1108	1	Ⴒ	cut_h.wav
5	176	4	3	2	I	2	0	927	1	Ⴌ	cut_g.wav
5	177	1	1	1	C	1	1	1283	1	Ⴒ	cut_w.wav
5	178	3	3	2	I	1	0	1142	1	Ⴕ	cut_g.wav
5	179	2	1	0	C	2	1	878	1	Ⴖ	cut_w.wav
5	180	4	4	2	I	2	0	944	1	Ⴌ	cut_l.wav
5	181	3	4	2	I	1	0	810	1	Ⴕ	cut_l.wav
5	182	4	3	2	I	2	0	1296	0	Ⴌ	cut_g.wav
5	183	2	2	1	C	1	1	1069	1	Ⴖ	cut_h.wav
5	184	1	2	0	C	2	1	842	1	Ⴒ	cut_h.wav
5	185	2	1	0	C	2	1	675	1	Ⴖ	cut_w.wav
5	186	1	2	0	C	2	1	730	1	Ⴒ	cut_h.wav
5	187	4	3	2	I	1	0	755	1	Ⴌ	cut_g.wav
5	188	3	4	2	I	2	0	811	1	Ⴕ	cut_l.wav
5	189	1	1	1	C	1	1	753	1	Ⴒ	cut_w.wav
5	190	3	3	2	I	1	0	1172	1	Ⴕ	cut_g.wav
5	191	2	2	1	C	1	1	761	1	Ⴖ	cut_h.wav
5	192	4	4	2	I	2	0	797	0	Ⴌ	cut_l.wav
5	193	3	3	2	I	1	0	781	0	Ⴕ	cut_g.wav
5	194	2	1	0	C	2	1	902	1	Ⴖ	cut_w.wav
5	195	1	2	0	C	2	1	842	1	Ⴒ	cut_h.wav
5	196	4	4	2	I	1	0	954	1	Ⴌ	cut_l.wav
5	197	3	4	2	I	2	0	515	0	Ⴕ	cut_l.wav
5	198	4	3	2	I	2	0	942	1	Ⴌ	cut_g.wav
5	199	2	2	1	C	1	1	738	1	Ⴖ	cut_h.wav
5	200	1	1	1	C	1	1	940	1	Ⴒ	cut_w.wav
