block	trial	Vstim	Astim	match	C/I	resp	result	RT	fb	V-file	A-file
RL

0	1	1	2	0	C	2	1	1398	1	poli_8sides 21_whiteLine3.jpg	Practice1_b27_cut1_stereo_44KHz.wav
0	2	1	1	1	C	1	1	976	1	poli_8sides 21_whiteLine3.jpg	Practice4_b26_stereo_44KHz.wav
0	3	2	3	1	C	1	1	1266	1	poli_8sides 23_whiteLine3.jpg	Practice3_b26_cut1_stereo_44KHz.wav
0	4	2	4	0	C	1	0	1325	0	poli_8sides 23_whiteLine3.jpg	Practice2_b27_cut2_stereo_44KHz.wav
0	5	2	3	1	C	2	0	691	0	poli_8sides 23_whiteLine3.jpg	Practice3_b26_cut1_stereo_44KHz.wav
0	6	1	1	1	C	2	0	971	0	poli_8sides 21_whiteLine3.jpg	Practice4_b26_stereo_44KHz.wav
0	7	2	4	0	C	1	0	1323	0	poli_8sides 23_whiteLine3.jpg	Practice2_b27_cut2_stereo_44KHz.wav
0	8	1	2	0	C	2	1	994	1	poli_8sides 21_whiteLine3.jpg	Practice1_b27_cut1_stereo_44KHz.wav
0	9	2	3	1	C	2	0	827	0	poli_8sides 23_whiteLine3.jpg	Practice3_b26_cut1_stereo_44KHz.wav
0	10	2	4	0	C	2	1	938	1	poli_8sides 23_whiteLine3.jpg	Practice2_b27_cut2_stereo_44KHz.wav
0	11	1	1	1	C	1	1	1026	1	poli_8sides 21_whiteLine3.jpg	Practice4_b26_stereo_44KHz.wav
0	12	1	2	0	C	2	1	1066	1	poli_8sides 21_whiteLine3.jpg	Practice1_b27_cut1_stereo_44KHz.wav
0	13	2	4	0	C	2	1	815	1	poli_8sides 23_whiteLine3.jpg	Practice2_b27_cut2_stereo_44KHz.wav
0	14	1	1	1	C	1	1	1314	1	poli_8sides 21_whiteLine3.jpg	Practice4_b26_stereo_44KHz.wav
0	15	2	3	1	C	1	1	1350	1	poli_8sides 23_whiteLine3.jpg	Practice3_b26_cut1_stereo_44KHz.wav
0	16	1	2	0	C	2	1	899	1	poli_8sides 21_whiteLine3.jpg	Practice1_b27_cut1_stereo_44KHz.wav
0	17	2	4	0	C	2	1	948	1	poli_8sides 23_whiteLine3.jpg	Practice2_b27_cut2_stereo_44KHz.wav
0	18	2	3	1	C	1	1	969	1	poli_8sides 23_whiteLine3.jpg	Practice3_b26_cut1_stereo_44KHz.wav
0	19	1	2	0	C	2	1	690	1	poli_8sides 21_whiteLine3.jpg	Practice1_b27_cut1_stereo_44KHz.wav
0	20	1	1	1	C	1	1	729	1	poli_8sides 21_whiteLine3.jpg	Practice4_b26_stereo_44KHz.wav
0	21	2	3	1	C	1	1	888	1	poli_8sides 23_whiteLine3.jpg	Practice3_b26_cut1_stereo_44KHz.wav
0	22	2	4	0	C	2	1	836	1	poli_8sides 23_whiteLine3.jpg	Practice2_b27_cut2_stereo_44KHz.wav
0	23	1	1	1	C	1	1	832	1	poli_8sides 21_whiteLine3.jpg	Practice4_b26_stereo_44KHz.wav
0	24	1	2	0	C	2	1	779	1	poli_8sides 21_whiteLine3.jpg	Practice1_b27_cut1_stereo_44KHz.wav
0	25	1	2	0	C	2	1	829	1	poli_8sides 21_whiteLine3.jpg	Practice1_b27_cut1_stereo_44KHz.wav
0	26	2	3	1	C	1	1	810	1	poli_8sides 23_whiteLine3.jpg	Practice3_b26_cut1_stereo_44KHz.wav
0	27	1	1	1	C	1	1	782	1	poli_8sides 21_whiteLine3.jpg	Practice4_b26_stereo_44KHz.wav
0	28	2	4	0	C	2	1	808	1	poli_8sides 23_whiteLine3.jpg	Practice2_b27_cut2_stereo_44KHz.wav
0	29	2	3	1	C	1	1	625	1	poli_8sides 23_whiteLine3.jpg	Practice3_b26_cut1_stereo_44KHz.wav
0	30	1	1	1	C	1	1	718	1	poli_8sides 21_whiteLine3.jpg	Practice4_b26_stereo_44KHz.wav
avg_resp = 931
1	1	3	3	2	I	2	0	1097	0	poli_8sides 13_whiteLine3.jpg	Short_b20_cut1_stereo_44KHz.wav
1	2	1	2	0	C	2	1	1031	1	poli_8sides 8_whiteLine3.jpg	Short_b09_cut1_stereo_44KHz.wav
1	3	4	4	2	I	1	0	1086	0	poli_8sides 16_whiteLine3.jpg	Short_b22_cut1_stereo_44KHz.wav
1	4	2	2	1	C	1	1	1115	1	poli_8sides 3_whiteLine3.jpg	Short_b09_cut1_stereo_44KHz.wav
1	5	4	3	2	I	2	0	900	0	poli_8sides 16_whiteLine3.jpg	Short_b20_cut1_stereo_44KHz.wav
1	6	3	4	2	I	1	0	1161	0	poli_8sides 13_whiteLine3.jpg	Short_b22_cut1_stereo_44KHz.wav
1	7	2	1	0	C	1	0	861	0	poli_8sides 3_whiteLine3.jpg	Short_b23_cut1_stereo_44KHz.wav
1	8	1	1	1	C	1	1	1111	1	poli_8sides 8_whiteLine3.jpg	Short_b23_cut1_stereo_44KHz.wav
1	9	3	3	2	I	1	0	1026	1	poli_8sides 13_whiteLine3.jpg	Short_b20_cut1_stereo_44KHz.wav
1	10	2	2	1	C	1	1	1140	1	poli_8sides 3_whiteLine3.jpg	Short_b09_cut1_stereo_44KHz.wav
1	11	4	3	2	I	2	0	987	0	poli_8sides 16_whiteLine3.jpg	Short_b20_cut1_stereo_44KHz.wav
1	12	1	2	0	C	1	0	875	0	poli_8sides 8_whiteLine3.jpg	Short_b09_cut1_stereo_44KHz.wav
1	13	4	4	2	I	2	0	966	0	poli_8sides 16_whiteLine3.jpg	Short_b22_cut1_stereo_44KHz.wav
1	14	3	4	2	I	2	0	695	1	poli_8sides 13_whiteLine3.jpg	Short_b22_cut1_stereo_44KHz.wav
1	15	1	1	1	C	2	0	777	0	poli_8sides 8_whiteLine3.jpg	Short_b23_cut1_stereo_44KHz.wav
1	16	2	1	0	C	2	1	1069	1	poli_8sides 3_whiteLine3.jpg	Short_b23_cut1_stereo_44KHz.wav
1	17	1	1	1	C	2	0	900	0	poli_8sides 8_whiteLine3.jpg	Short_b23_cut1_stereo_44KHz.wav
1	18	2	2	1	C	2	0	1180	0	poli_8sides 3_whiteLine3.jpg	Short_b09_cut1_stereo_44KHz.wav
1	19	4	4	2	I	1	0	1123	0	poli_8sides 16_whiteLine3.jpg	Short_b22_cut1_stereo_44KHz.wav
1	20	3	4	2	I	2	0	744	1	poli_8sides 13_whiteLine3.jpg	Short_b22_cut1_stereo_44KHz.wav
1	21	4	3	2	I	2	0	974	0	poli_8sides 16_whiteLine3.jpg	Short_b20_cut1_stereo_44KHz.wav
1	22	1	2	0	C	2	1	1031	1	poli_8sides 8_whiteLine3.jpg	Short_b09_cut1_stereo_44KHz.wav
1	23	3	3	2	I	2	0	1225	0	poli_8sides 13_whiteLine3.jpg	Short_b20_cut1_stereo_44KHz.wav
1	24	2	1	0	C	2	1	806	1	poli_8sides 3_whiteLine3.jpg	Short_b23_cut1_stereo_44KHz.wav
1	25	4	3	2	I	2	0	1189	0	poli_8sides 16_whiteLine3.jpg	Short_b20_cut1_stereo_44KHz.wav
1	26	1	2	0	C	2	1	1121	1	poli_8sides 8_whiteLine3.jpg	Short_b09_cut1_stereo_44KHz.wav
1	27	2	1	0	C	2	1	1058	1	poli_8sides 3_whiteLine3.jpg	Short_b23_cut1_stereo_44KHz.wav
1	28	3	4	2	I	1	0	1129	1	poli_8sides 13_whiteLine3.jpg	Short_b22_cut1_stereo_44KHz.wav
1	29	4	4	2	I	1	0	1269	0	poli_8sides 16_whiteLine3.jpg	Short_b22_cut1_stereo_44KHz.wav
1	30	2	2	1	C	1	1	1010	1	poli_8sides 3_whiteLine3.jpg	Short_b09_cut1_stereo_44KHz.wav
1	31	1	1	1	C	1	1	977	1	poli_8sides 8_whiteLine3.jpg	Short_b23_cut1_stereo_44KHz.wav
1	32	3	3	2	I	1	0	1263	0	poli_8sides 13_whiteLine3.jpg	Short_b20_cut1_stereo_44KHz.wav
1	33	1	2	0	C	2	1	1369	1	poli_8sides 8_whiteLine3.jpg	Short_b09_cut1_stereo_44KHz.wav
1	34	3	4	2	I	2	0	1308	1	poli_8sides 13_whiteLine3.jpg	Short_b22_cut1_stereo_44KHz.wav
1	35	4	3	2	I	1	0	1090	1	poli_8sides 16_whiteLine3.jpg	Short_b20_cut1_stereo_44KHz.wav
1	36	2	1	0	C	2	1	794	1	poli_8sides 3_whiteLine3.jpg	Short_b23_cut1_stereo_44KHz.wav
1	37	3	3	2	I	1	0	1093	1	poli_8sides 13_whiteLine3.jpg	Short_b20_cut1_stereo_44KHz.wav
1	38	4	4	2	I	1	0	943	1	poli_8sides 16_whiteLine3.jpg	Short_b22_cut1_stereo_44KHz.wav
1	39	1	1	1	C	2	0	792	0	poli_8sides 8_whiteLine3.jpg	Short_b23_cut1_stereo_44KHz.wav
1	40	2	2	1	C	1	1	1278	1	poli_8sides 3_whiteLine3.jpg	Short_b09_cut1_stereo_44KHz.wav
1	41	3	4	2	I	1	0	1054	0	poli_8sides 13_whiteLine3.jpg	Short_b22_cut1_stereo_44KHz.wav
1	42	4	4	2	I	1	0	1190	1	poli_8sides 16_whiteLine3.jpg	Short_b22_cut1_stereo_44KHz.wav
1	43	1	1	1	C	2	0	1173	0	poli_8sides 8_whiteLine3.jpg	Short_b23_cut1_stereo_44KHz.wav
1	44	2	2	1	C	1	1	703	1	poli_8sides 3_whiteLine3.jpg	Short_b09_cut1_stereo_44KHz.wav
1	45	4	3	2	I	1	0	1098	0	poli_8sides 16_whiteLine3.jpg	Short_b20_cut1_stereo_44KHz.wav
1	46	1	2	0	C	1	0	899	0	poli_8sides 8_whiteLine3.jpg	Short_b09_cut1_stereo_44KHz.wav
1	47	3	3	2	I	1	0	1114	0	poli_8sides 13_whiteLine3.jpg	Short_b20_cut1_stereo_44KHz.wav
1	48	2	1	0	C	2	1	1175	1	poli_8sides 3_whiteLine3.jpg	Short_b23_cut1_stereo_44KHz.wav
1	49	1	1	1	C	2	0	992	0	poli_8sides 8_whiteLine3.jpg	Short_b23_cut1_stereo_44KHz.wav
1	50	3	4	2	I	1	0	1235	1	poli_8sides 13_whiteLine3.jpg	Short_b22_cut1_stereo_44KHz.wav
1	51	4	3	2	I	2	0	853	1	poli_8sides 16_whiteLine3.jpg	Short_b20_cut1_stereo_44KHz.wav
1	52	2	1	0	C	2	1	862	1	poli_8sides 3_whiteLine3.jpg	Short_b23_cut1_stereo_44KHz.wav
1	53	4	4	2	I	1	0	753	1	poli_8sides 16_whiteLine3.jpg	Short_b22_cut1_stereo_44KHz.wav
1	54	2	2	1	C	1	1	832	1	poli_8sides 3_whiteLine3.jpg	Short_b09_cut1_stereo_44KHz.wav
1	55	3	3	2	I	2	0	953	0	poli_8sides 13_whiteLine3.jpg	Short_b20_cut1_stereo_44KHz.wav
1	56	1	2	0	C	2	1	1074	1	poli_8sides 8_whiteLine3.jpg	Short_b09_cut1_stereo_44KHz.wav
1	57	2	1	0	C	2	1	750	1	poli_8sides 3_whiteLine3.jpg	Short_b23_cut1_stereo_44KHz.wav
1	58	1	1	1	C	2	0	655	0	poli_8sides 8_whiteLine3.jpg	Short_b23_cut1_stereo_44KHz.wav
1	59	3	3	2	I	2	0	1094	0	poli_8sides 13_whiteLine3.jpg	Short_b20_cut1_stereo_44KHz.wav
1	60	4	3	2	I	2	0	688	1	poli_8sides 16_whiteLine3.jpg	Short_b20_cut1_stereo_44KHz.wav
1	61	3	4	2	I	2	0	843	0	poli_8sides 13_whiteLine3.jpg	Short_b22_cut1_stereo_44KHz.wav
1	62	4	4	2	I	1	0	802	0	poli_8sides 16_whiteLine3.jpg	Short_b22_cut1_stereo_44KHz.wav
1	63	2	2	1	C	1	1	1101	1	poli_8sides 3_whiteLine3.jpg	Short_b09_cut1_stereo_44KHz.wav
1	64	1	2	0	C	2	1	977	1	poli_8sides 8_whiteLine3.jpg	Short_b09_cut1_stereo_44KHz.wav
1	65	4	4	2	I	1	0	1041	1	poli_8sides 16_whiteLine3.jpg	Short_b22_cut1_stereo_44KHz.wav
1	66	2	1	0	C	2	1	706	1	poli_8sides 3_whiteLine3.jpg	Short_b23_cut1_stereo_44KHz.wav
1	67	1	1	1	C	1	1	1213	1	poli_8sides 8_whiteLine3.jpg	Short_b23_cut1_stereo_44KHz.wav
1	68	3	3	2	I	2	0	1070	1	poli_8sides 13_whiteLine3.jpg	Short_b20_cut1_stereo_44KHz.wav
1	69	2	2	1	C	1	1	981	1	poli_8sides 3_whiteLine3.jpg	Short_b09_cut1_stereo_44KHz.wav
1	70	4	3	2	I	2	0	1056	1	poli_8sides 16_whiteLine3.jpg	Short_b20_cut1_stereo_44KHz.wav
1	71	1	2	0	C	2	1	1199	1	poli_8sides 8_whiteLine3.jpg	Short_b09_cut1_stereo_44KHz.wav
1	72	3	4	2	I	2	0	1179	0	poli_8sides 13_whiteLine3.jpg	Short_b22_cut1_stereo_44KHz.wav
1	73	1	2	0	C	1	0	1236	0	poli_8sides 8_whiteLine3.jpg	Short_b09_cut1_stereo_44KHz.wav
1	74	4	3	2	I	2	0	844	1	poli_8sides 16_whiteLine3.jpg	Short_b20_cut1_stereo_44KHz.wav
1	75	3	4	2	I	1	0	1160	0	poli_8sides 13_whiteLine3.jpg	Short_b22_cut1_stereo_44KHz.wav
1	76	2	2	1	C	1	1	1008	1	poli_8sides 3_whiteLine3.jpg	Short_b09_cut1_stereo_44KHz.wav
1	77	1	1	1	C	1	1	833	1	poli_8sides 8_whiteLine3.jpg	Short_b23_cut1_stereo_44KHz.wav
1	78	3	3	2	I	1	0	1121	0	poli_8sides 13_whiteLine3.jpg	Short_b20_cut1_stereo_44KHz.wav
1	79	4	4	2	I	1	0	762	1	poli_8sides 16_whiteLine3.jpg	Short_b22_cut1_stereo_44KHz.wav
1	80	2	1	0	C	2	1	699	1	poli_8sides 3_whiteLine3.jpg	Short_b23_cut1_stereo_44KHz.wav
1	81	4	3	2	I	2	0	977	0	poli_8sides 16_whiteLine3.jpg	Short_b20_cut1_stereo_44KHz.wav
1	82	1	1	1	C	1	1	855	1	poli_8sides 8_whiteLine3.jpg	Short_b23_cut1_stereo_44KHz.wav
1	83	3	3	2	I	1	0	1102	0	poli_8sides 13_whiteLine3.jpg	Short_b20_cut1_stereo_44KHz.wav
1	84	2	2	1	C	1	1	951	1	poli_8sides 3_whiteLine3.jpg	Short_b09_cut1_stereo_44KHz.wav
1	85	1	2	0	C	2	1	986	1	poli_8sides 8_whiteLine3.jpg	Short_b09_cut1_stereo_44KHz.wav
1	86	4	4	2	I	1	0	748	1	poli_8sides 16_whiteLine3.jpg	Short_b22_cut1_stereo_44KHz.wav
1	87	3	4	2	I	2	0	902	0	poli_8sides 13_whiteLine3.jpg	Short_b22_cut1_stereo_44KHz.wav
1	88	2	1	0	C	2	1	726	1	poli_8sides 3_whiteLine3.jpg	Short_b23_cut1_stereo_44KHz.wav
1	89	4	3	2	I	2	0	993	0	poli_8sides 16_whiteLine3.jpg	Short_b20_cut1_stereo_44KHz.wav
1	90	2	1	0	C	2	1	798	1	poli_8sides 3_whiteLine3.jpg	Short_b23_cut1_stereo_44KHz.wav
1	91	3	3	2	I	1	0	1132	0	poli_8sides 13_whiteLine3.jpg	Short_b20_cut1_stereo_44KHz.wav
1	92	1	1	1	C	1	1	889	1	poli_8sides 8_whiteLine3.jpg	Short_b23_cut1_stereo_44KHz.wav
1	93	4	4	2	I	1	0	797	0	poli_8sides 16_whiteLine3.jpg	Short_b22_cut1_stereo_44KHz.wav
1	94	1	2	0	C	2	1	894	1	poli_8sides 8_whiteLine3.jpg	Short_b09_cut1_stereo_44KHz.wav
1	95	3	4	2	I	2	0	770	1	poli_8sides 13_whiteLine3.jpg	Short_b22_cut1_stereo_44KHz.wav
1	96	2	2	1	C	1	1	1030	1	poli_8sides 3_whiteLine3.jpg	Short_b09_cut1_stereo_44KHz.wav
1	97	1	2	0	C	2	1	885	1	poli_8sides 8_whiteLine3.jpg	Short_b09_cut1_stereo_44KHz.wav
1	98	4	3	2	I	2	0	1141	1	poli_8sides 16_whiteLine3.jpg	Short_b20_cut1_stereo_44KHz.wav
1	99	3	3	2	I	1	0	849	1	poli_8sides 13_whiteLine3.jpg	Short_b20_cut1_stereo_44KHz.wav
1	100	2	1	0	C	2	1	755	1	poli_8sides 3_whiteLine3.jpg	Short_b23_cut1_stereo_44KHz.wav
1	101	3	4	2	I	2	0	846	0	poli_8sides 13_whiteLine3.jpg	Short_b22_cut1_stereo_44KHz.wav
1	102	2	2	1	C	1	1	862	1	poli_8sides 3_whiteLine3.jpg	Short_b09_cut1_stereo_44KHz.wav
1	103	4	4	2	I	1	0	1021	0	poli_8sides 16_whiteLine3.jpg	Short_b22_cut1_stereo_44KHz.wav
1	104	1	1	1	C	1	1	819	1	poli_8sides 8_whiteLine3.jpg	Short_b23_cut1_stereo_44KHz.wav
1	105	3	4	2	I	2	0	795	1	poli_8sides 13_whiteLine3.jpg	Short_b22_cut1_stereo_44KHz.wav
1	106	2	2	1	C	1	1	784	1	poli_8sides 3_whiteLine3.jpg	Short_b09_cut1_stereo_44KHz.wav
1	107	4	3	2	I	1	0	1097	1	poli_8sides 16_whiteLine3.jpg	Short_b20_cut1_stereo_44KHz.wav
1	108	1	1	1	C	1	1	757	1	poli_8sides 8_whiteLine3.jpg	Short_b23_cut1_stereo_44KHz.wav
1	109	2	1	0	C	2	1	695	1	poli_8sides 3_whiteLine3.jpg	Short_b23_cut1_stereo_44KHz.wav
1	110	1	2	0	C	2	1	920	1	poli_8sides 8_whiteLine3.jpg	Short_b09_cut1_stereo_44KHz.wav
1	111	4	4	2	I	2	0	839	1	poli_8sides 16_whiteLine3.jpg	Short_b22_cut1_stereo_44KHz.wav
1	112	3	3	2	I	2	0	1148	1	poli_8sides 13_whiteLine3.jpg	Short_b20_cut1_stereo_44KHz.wav
1	113	1	1	1	C	1	1	710	1	poli_8sides 8_whiteLine3.jpg	Short_b23_cut1_stereo_44KHz.wav
1	114	4	3	2	I	1	0	720	0	poli_8sides 16_whiteLine3.jpg	Short_b20_cut1_stereo_44KHz.wav
1	115	2	1	0	C	2	1	688	1	poli_8sides 3_whiteLine3.jpg	Short_b23_cut1_stereo_44KHz.wav
1	116	3	3	2	I	1	0	717	1	poli_8sides 13_whiteLine3.jpg	Short_b20_cut1_stereo_44KHz.wav
1	117	4	4	2	I	2	0	690	1	poli_8sides 16_whiteLine3.jpg	Short_b22_cut1_stereo_44KHz.wav
1	118	3	4	2	I	2	0	953	1	poli_8sides 13_whiteLine3.jpg	Short_b22_cut1_stereo_44KHz.wav
1	119	1	2	0	C	2	1	738	1	poli_8sides 8_whiteLine3.jpg	Short_b09_cut1_stereo_44KHz.wav
1	120	2	2	1	C	1	1	1062	1	poli_8sides 3_whiteLine3.jpg	Short_b09_cut1_stereo_44KHz.wav
1	121	3	3	2	I	1	0	1258	0	poli_8sides 13_whiteLine3.jpg	Short_b20_cut1_stereo_44KHz.wav
1	122	1	1	1	C	1	1	851	1	poli_8sides 8_whiteLine3.jpg	Short_b23_cut1_stereo_44KHz.wav
1	123	2	2	1	C	1	1	835	1	poli_8sides 3_whiteLine3.jpg	Short_b09_cut1_stereo_44KHz.wav
1	124	4	3	2	I	2	0	931	1	poli_8sides 16_whiteLine3.jpg	Short_b20_cut1_stereo_44KHz.wav
1	125	3	4	2	I	2	0	880	0	poli_8sides 13_whiteLine3.jpg	Short_b22_cut1_stereo_44KHz.wav
1	126	4	4	2	I	2	0	1054	1	poli_8sides 16_whiteLine3.jpg	Short_b22_cut1_stereo_44KHz.wav
1	127	2	1	0	C	1	0	1249	0	poli_8sides 3_whiteLine3.jpg	Short_b23_cut1_stereo_44KHz.wav
1	128	1	2	0	C	2	1	773	1	poli_8sides 8_whiteLine3.jpg	Short_b09_cut1_stereo_44KHz.wav
1	129	4	3	2	I	2	0	1037	0	poli_8sides 16_whiteLine3.jpg	Short_b20_cut1_stereo_44KHz.wav
1	130	1	1	1	C	1	1	762	1	poli_8sides 8_whiteLine3.jpg	Short_b23_cut1_stereo_44KHz.wav
1	131	2	2	1	C	1	1	701	1	poli_8sides 3_whiteLine3.jpg	Short_b09_cut1_stereo_44KHz.wav
1	132	3	4	2	I	2	0	868	0	poli_8sides 13_whiteLine3.jpg	Short_b22_cut1_stereo_44KHz.wav
1	133	4	4	2	I	2	0	851	0	poli_8sides 16_whiteLine3.jpg	Short_b22_cut1_stereo_44KHz.wav
1	134	3	3	2	I	1	0	1235	0	poli_8sides 13_whiteLine3.jpg	Short_b20_cut1_stereo_44KHz.wav
1	135	1	2	0	C	2	1	1065	1	poli_8sides 8_whiteLine3.jpg	Short_b09_cut1_stereo_44KHz.wav
1	136	2	1	0	C	2	1	850	1	poli_8sides 3_whiteLine3.jpg	Short_b23_cut1_stereo_44KHz.wav
1	137	3	4	2	I	2	0	1119	1	poli_8sides 13_whiteLine3.jpg	Short_b22_cut1_stereo_44KHz.wav
1	138	4	3	2	I	2	0	1075	1	poli_8sides 16_whiteLine3.jpg	Short_b20_cut1_stereo_44KHz.wav
1	139	2	2	1	C	1	1	829	1	poli_8sides 3_whiteLine3.jpg	Short_b09_cut1_stereo_44KHz.wav
1	140	1	1	1	C	1	1	1463	1	poli_8sides 8_whiteLine3.jpg	Short_b23_cut1_stereo_44KHz.wav
1	141	3	3	2	I	2	0	1351	1	poli_8sides 13_whiteLine3.jpg	Short_b20_cut1_stereo_44KHz.wav
1	142	2	1	0	C	2	1	888	1	poli_8sides 3_whiteLine3.jpg	Short_b23_cut1_stereo_44KHz.wav
1	143	1	2	0	C	2	1	1042	1	poli_8sides 8_whiteLine3.jpg	Short_b09_cut1_stereo_44KHz.wav
1	144	4	4	2	I	2	0	1104	1	poli_8sides 16_whiteLine3.jpg	Short_b22_cut1_stereo_44KHz.wav
1	145	3	3	2	I	2	0	673	0	poli_8sides 13_whiteLine3.jpg	Short_b20_cut1_stereo_44KHz.wav
1	146	2	2	1	C	1	1	793	1	poli_8sides 3_whiteLine3.jpg	Short_b09_cut1_stereo_44KHz.wav
1	147	4	4	2	I	2	0	1079	0	poli_8sides 16_whiteLine3.jpg	Short_b22_cut1_stereo_44KHz.wav
1	148	1	2	0	C	2	1	903	1	poli_8sides 8_whiteLine3.jpg	Short_b09_cut1_stereo_44KHz.wav
1	149	4	3	2	I	2	0	1384	1	poli_8sides 16_whiteLine3.jpg	Short_b20_cut1_stereo_44KHz.wav
1	150	3	4	2	I	2	0	1004	1	poli_8sides 13_whiteLine3.jpg	Short_b22_cut1_stereo_44KHz.wav
1	151	2	1	0	C	2	1	614	1	poli_8sides 3_whiteLine3.jpg	Short_b23_cut1_stereo_44KHz.wav
1	152	1	1	1	C	1	1	805	1	poli_8sides 8_whiteLine3.jpg	Short_b23_cut1_stereo_44KHz.wav
1	153	2	2	1	C	1	1	799	1	poli_8sides 3_whiteLine3.jpg	Short_b09_cut1_stereo_44KHz.wav
1	154	1	1	1	C	1	1	904	1	poli_8sides 8_whiteLine3.jpg	Short_b23_cut1_stereo_44KHz.wav
1	155	3	4	2	I	2	0	1100	1	poli_8sides 13_whiteLine3.jpg	Short_b22_cut1_stereo_44KHz.wav
1	156	4	3	2	I	2	0	1029	0	poli_8sides 16_whiteLine3.jpg	Short_b20_cut1_stereo_44KHz.wav
1	157	1	2	0	C	2	1	860	1	poli_8sides 8_whiteLine3.jpg	Short_b09_cut1_stereo_44KHz.wav
1	158	2	1	0	C	2	1	841	1	poli_8sides 3_whiteLine3.jpg	Short_b23_cut1_stereo_44KHz.wav
1	159	3	3	2	I	2	0	1243	0	poli_8sides 13_whiteLine3.jpg	Short_b20_cut1_stereo_44KHz.wav
1	160	4	4	2	I	2	0	1405	0	poli_8sides 16_whiteLine3.jpg	Short_b22_cut1_stereo_44KHz.wav
1	161	2	2	1	C	1	1	759	1	poli_8sides 3_whiteLine3.jpg	Short_b09_cut1_stereo_44KHz.wav
1	162	4	4	2	I	2	0	1049	1	poli_8sides 16_whiteLine3.jpg	Short_b22_cut1_stereo_44KHz.wav
1	163	1	1	1	C	1	1	828	1	poli_8sides 8_whiteLine3.jpg	Short_b23_cut1_stereo_44KHz.wav
1	164	3	3	2	I	2	0	1015	1	poli_8sides 13_whiteLine3.jpg	Short_b20_cut1_stereo_44KHz.wav
1	165	4	3	2	I	2	0	918	0	poli_8sides 16_whiteLine3.jpg	Short_b20_cut1_stereo_44KHz.wav
1	166	1	2	0	C	2	1	800	1	poli_8sides 8_whiteLine3.jpg	Short_b09_cut1_stereo_44KHz.wav
1	167	2	1	0	C	2	1	716	1	poli_8sides 3_whiteLine3.jpg	Short_b23_cut1_stereo_44KHz.wav
1	168	3	4	2	I	2	0	897	1	poli_8sides 13_whiteLine3.jpg	Short_b22_cut1_stereo_44KHz.wav
1	169	1	2	0	C	2	1	830	1	poli_8sides 8_whiteLine3.jpg	Short_b09_cut1_stereo_44KHz.wav
1	170	4	4	2	I	1	0	1137	1	poli_8sides 16_whiteLine3.jpg	Short_b22_cut1_stereo_44KHz.wav
1	171	2	1	0	C	2	1	789	1	poli_8sides 3_whiteLine3.jpg	Short_b23_cut1_stereo_44KHz.wav
1	172	3	3	2	I	2	0	1313	1	poli_8sides 13_whiteLine3.jpg	Short_b20_cut1_stereo_44KHz.wav
1	173	2	2	1	C	1	1	1098	1	poli_8sides 3_whiteLine3.jpg	Short_b09_cut1_stereo_44KHz.wav
1	174	3	4	2	I	2	0	1170	1	poli_8sides 13_whiteLine3.jpg	Short_b22_cut1_stereo_44KHz.wav
1	175	4	3	2	I	1	0	1054	1	poli_8sides 16_whiteLine3.jpg	Short_b20_cut1_stereo_44KHz.wav
1	176	1	1	1	C	1	1	1606	1	poli_8sides 8_whiteLine3.jpg	Short_b23_cut1_stereo_44KHz.wav
1	177	4	4	2	I	2	0	1559	1	poli_8sides 16_whiteLine3.jpg	Short_b22_cut1_stereo_44KHz.wav
1	178	1	1	1	C	1	1	1200	1	poli_8sides 8_whiteLine3.jpg	Short_b23_cut1_stereo_44KHz.wav
1	179	3	4	2	I	2	0	1163	0	poli_8sides 13_whiteLine3.jpg	Short_b22_cut1_stereo_44KHz.wav
1	180	2	2	1	C	1	1	932	1	poli_8sides 3_whiteLine3.jpg	Short_b09_cut1_stereo_44KHz.wav
1	181	1	2	0	C	2	1	861	1	poli_8sides 8_whiteLine3.jpg	Short_b09_cut1_stereo_44KHz.wav
1	182	4	3	2	I	2	0	1291	0	poli_8sides 16_whiteLine3.jpg	Short_b20_cut1_stereo_44KHz.wav
1	183	2	1	0	C	2	1	1105	1	poli_8sides 3_whiteLine3.jpg	Short_b23_cut1_stereo_44KHz.wav
1	184	3	3	2	I	2	0	999	1	poli_8sides 13_whiteLine3.jpg	Short_b20_cut1_stereo_44KHz.wav
1	185	1	1	1	C	1	1	759	1	poli_8sides 8_whiteLine3.jpg	Short_b23_cut1_stereo_44KHz.wav
1	186	4	3	2	I	1	0	1569	1	poli_8sides 16_whiteLine3.jpg	Short_b20_cut1_stereo_44KHz.wav
1	187	3	4	2	I	2	0	916	1	poli_8sides 13_whiteLine3.jpg	Short_b22_cut1_stereo_44KHz.wav
1	188	2	2	1	C	1	1	739	1	poli_8sides 3_whiteLine3.jpg	Short_b09_cut1_stereo_44KHz.wav
1	189	3	3	2	I	2	0	1097	1	poli_8sides 13_whiteLine3.jpg	Short_b20_cut1_stereo_44KHz.wav
1	190	1	2	0	C	2	1	982	1	poli_8sides 8_whiteLine3.jpg	Short_b09_cut1_stereo_44KHz.wav
1	191	2	1	0	C	2	1	932	1	poli_8sides 3_whiteLine3.jpg	Short_b23_cut1_stereo_44KHz.wav
1	192	4	4	2	I	2	0	1438	0	poli_8sides 16_whiteLine3.jpg	Short_b22_cut1_stereo_44KHz.wav
1	193	1	2	0	C	2	1	781	1	poli_8sides 8_whiteLine3.jpg	Short_b09_cut1_stereo_44KHz.wav
1	194	2	2	1	C	1	1	781	1	poli_8sides 3_whiteLine3.jpg	Short_b09_cut1_stereo_44KHz.wav
1	195	3	4	2	I	2	0	733	0	poli_8sides 13_whiteLine3.jpg	Short_b22_cut1_stereo_44KHz.wav
1	196	4	3	2	I	1	0	948	0	poli_8sides 16_whiteLine3.jpg	Short_b20_cut1_stereo_44KHz.wav
1	197	3	3	2	I	2	0	920	0	poli_8sides 13_whiteLine3.jpg	Short_b20_cut1_stereo_44KHz.wav
1	198	4	4	2	I	1	0	980	0	poli_8sides 16_whiteLine3.jpg	Short_b22_cut1_stereo_44KHz.wav
1	199	1	1	1	C	1	1	800	1	poli_8sides 8_whiteLine3.jpg	Short_b23_cut1_stereo_44KHz.wav
1	200	2	1	0	C	2	1	839	1	poli_8sides 3_whiteLine3.jpg	Short_b23_cut1_stereo_44KHz.wav
2	1	2	1	0	C	2	1	1787	1	poli_8sides 10_whiteLine3.jpg	MediumShort_b10_cut1_MS_stereo_44KHz.wav
2	2	4	3	2	I	2	0	1074	1	poli_8sides 12_whiteLine3.jpg	MediumShort_e16_cut1_stereo_44KHz.wav
2	3	1	2	0	C	2	1	1000	1	poli_8sides 18_whiteLine3.jpg	MediumShort_b16_cut3_MS_stereo_44KHz.wav
2	4	3	3	2	I	2	0	1650	1	poli_8sides 4_whiteLine3.jpg	MediumShort_e16_cut1_stereo_44KHz.wav
2	5	4	4	2	I	2	0	1313	1	poli_8sides 12_whiteLine3.jpg	MediumShort_e22_cut1_stereo_44KHz.wav
2	6	2	2	1	C	2	0	1015	0	poli_8sides 10_whiteLine3.jpg	MediumShort_b16_cut3_MS_stereo_44KHz.wav
2	7	1	1	1	C	2	0	1439	0	poli_8sides 18_whiteLine3.jpg	MediumShort_b10_cut1_MS_stereo_44KHz.wav
2	8	3	4	2	I	1	0	1684	0	poli_8sides 4_whiteLine3.jpg	MediumShort_e22_cut1_stereo_44KHz.wav
2	9	1	1	1	C	2	0	882	0	poli_8sides 18_whiteLine3.jpg	MediumShort_b10_cut1_MS_stereo_44KHz.wav
2	10	2	1	0	C	2	1	1308	1	poli_8sides 10_whiteLine3.jpg	MediumShort_b10_cut1_MS_stereo_44KHz.wav
2	11	3	3	2	I	2	0	1360	0	poli_8sides 4_whiteLine3.jpg	MediumShort_e16_cut1_stereo_44KHz.wav
2	12	4	3	2	I	2	0	904	0	poli_8sides 12_whiteLine3.jpg	MediumShort_e16_cut1_stereo_44KHz.wav
2	13	1	2	0	C	2	1	855	1	poli_8sides 18_whiteLine3.jpg	MediumShort_b16_cut3_MS_stereo_44KHz.wav
2	14	4	4	2	I	2	0	1765	0	poli_8sides 12_whiteLine3.jpg	MediumShort_e22_cut1_stereo_44KHz.wav
2	15	3	4	2	I	2	0	1071	0	poli_8sides 4_whiteLine3.jpg	MediumShort_e22_cut1_stereo_44KHz.wav
2	16	2	2	1	C	1	1	1975	1	poli_8sides 10_whiteLine3.jpg	MediumShort_b16_cut3_MS_stereo_44KHz.wav
2	17	1	1	1	C	2	0	1726	0	poli_8sides 18_whiteLine3.jpg	MediumShort_b10_cut1_MS_stereo_44KHz.wav
2	18	3	4	2	I	2	0	1570	0	poli_8sides 4_whiteLine3.jpg	MediumShort_e22_cut1_stereo_44KHz.wav
2	19	2	1	0	C	2	1	1936	1	poli_8sides 10_whiteLine3.jpg	MediumShort_b10_cut1_MS_stereo_44KHz.wav
2	20	4	4	2	I	2	0	868	1	poli_8sides 12_whiteLine3.jpg	MediumShort_e22_cut1_stereo_44KHz.wav
2	21	1	2	0	C	2	1	1442	1	poli_8sides 18_whiteLine3.jpg	MediumShort_b16_cut3_MS_stereo_44KHz.wav
2	22	4	3	2	I	1	0	1347	0	poli_8sides 12_whiteLine3.jpg	MediumShort_e16_cut1_stereo_44KHz.wav
2	23	2	2	1	C	1	1	1555	1	poli_8sides 10_whiteLine3.jpg	MediumShort_b16_cut3_MS_stereo_44KHz.wav
2	24	3	3	2	I	2	0	1728	1	poli_8sides 4_whiteLine3.jpg	MediumShort_e16_cut1_stereo_44KHz.wav
2	25	4	4	2	I	2	0	1674	0	poli_8sides 12_whiteLine3.jpg	MediumShort_e22_cut1_stereo_44KHz.wav
2	26	1	2	0	C	2	1	1255	1	poli_8sides 18_whiteLine3.jpg	MediumShort_b16_cut3_MS_stereo_44KHz.wav
2	27	3	3	2	I	0	0	0	0	poli_8sides 4_whiteLine3.jpg	MediumShort_e16_cut1_stereo_44KHz.wav
2	28	2	2	1	C	1	1	1276	1	poli_8sides 10_whiteLine3.jpg	MediumShort_b16_cut3_MS_stereo_44KHz.wav
2	29	4	3	2	I	2	0	1024	1	poli_8sides 12_whiteLine3.jpg	MediumShort_e16_cut1_stereo_44KHz.wav
2	30	1	1	1	C	1	1	1151	1	poli_8sides 18_whiteLine3.jpg	MediumShort_b10_cut1_MS_stereo_44KHz.wav
2	31	2	1	0	C	2	1	892	1	poli_8sides 10_whiteLine3.jpg	MediumShort_b10_cut1_MS_stereo_44KHz.wav
2	32	3	4	2	I	2	0	1500	1	poli_8sides 4_whiteLine3.jpg	MediumShort_e22_cut1_stereo_44KHz.wav
2	33	2	1	0	C	2	1	1180	1	poli_8sides 10_whiteLine3.jpg	MediumShort_b10_cut1_MS_stereo_44KHz.wav
2	34	1	1	1	C	1	1	891	1	poli_8sides 18_whiteLine3.jpg	MediumShort_b10_cut1_MS_stereo_44KHz.wav
2	35	4	4	2	I	1	0	1455	0	poli_8sides 12_whiteLine3.jpg	MediumShort_e22_cut1_stereo_44KHz.wav
2	36	3	4	2	I	2	0	696	0	poli_8sides 4_whiteLine3.jpg	MediumShort_e22_cut1_stereo_44KHz.wav
2	37	2	2	1	C	1	1	915	1	poli_8sides 10_whiteLine3.jpg	MediumShort_b16_cut3_MS_stereo_44KHz.wav
2	38	1	2	0	C	2	1	862	1	poli_8sides 18_whiteLine3.jpg	MediumShort_b16_cut3_MS_stereo_44KHz.wav
2	39	3	3	2	I	1	0	1471	0	poli_8sides 4_whiteLine3.jpg	MediumShort_e16_cut1_stereo_44KHz.wav
2	40	4	3	2	I	1	0	1272	0	poli_8sides 12_whiteLine3.jpg	MediumShort_e16_cut1_stereo_44KHz.wav
2	41	1	2	0	C	2	1	628	1	poli_8sides 18_whiteLine3.jpg	MediumShort_b16_cut3_MS_stereo_44KHz.wav
2	42	3	3	2	I	2	0	693	1	poli_8sides 4_whiteLine3.jpg	MediumShort_e16_cut1_stereo_44KHz.wav
2	43	4	3	2	I	2	0	520	0	poli_8sides 12_whiteLine3.jpg	MediumShort_e16_cut1_stereo_44KHz.wav
2	44	2	1	0	C	2	1	1324	1	poli_8sides 10_whiteLine3.jpg	MediumShort_b10_cut1_MS_stereo_44KHz.wav
2	45	1	1	1	C	1	1	878	1	poli_8sides 18_whiteLine3.jpg	MediumShort_b10_cut1_MS_stereo_44KHz.wav
2	46	3	4	2	I	2	0	803	0	poli_8sides 4_whiteLine3.jpg	MediumShort_e22_cut1_stereo_44KHz.wav
2	47	4	4	2	I	0	0	0	0	poli_8sides 12_whiteLine3.jpg	MediumShort_e22_cut1_stereo_44KHz.wav
2	48	2	2	1	C	1	1	949	1	poli_8sides 10_whiteLine3.jpg	MediumShort_b16_cut3_MS_stereo_44KHz.wav
2	49	3	4	2	I	1	0	1140	1	poli_8sides 4_whiteLine3.jpg	MediumShort_e22_cut1_stereo_44KHz.wav
2	50	1	1	1	C	1	1	1018	1	poli_8sides 18_whiteLine3.jpg	MediumShort_b10_cut1_MS_stereo_44KHz.wav
2	51	4	3	2	I	2	0	846	0	poli_8sides 12_whiteLine3.jpg	MediumShort_e16_cut1_stereo_44KHz.wav
2	52	2	1	0	C	2	1	1407	1	poli_8sides 10_whiteLine3.jpg	MediumShort_b10_cut1_MS_stereo_44KHz.wav
2	53	1	2	0	C	2	1	1016	1	poli_8sides 18_whiteLine3.jpg	MediumShort_b16_cut3_MS_stereo_44KHz.wav
2	54	3	3	2	I	2	0	1091	0	poli_8sides 4_whiteLine3.jpg	MediumShort_e16_cut1_stereo_44KHz.wav
2	55	2	2	1	C	1	1	1049	1	poli_8sides 10_whiteLine3.jpg	MediumShort_b16_cut3_MS_stereo_44KHz.wav
2	56	4	4	2	I	2	0	1533	1	poli_8sides 12_whiteLine3.jpg	MediumShort_e22_cut1_stereo_44KHz.wav
2	57	2	1	0	C	2	1	1146	1	poli_8sides 10_whiteLine3.jpg	MediumShort_b10_cut1_MS_stereo_44KHz.wav
2	58	4	4	2	I	2	0	1397	0	poli_8sides 12_whiteLine3.jpg	MediumShort_e22_cut1_stereo_44KHz.wav
2	59	3	3	2	I	2	0	1195	1	poli_8sides 4_whiteLine3.jpg	MediumShort_e16_cut1_stereo_44KHz.wav
2	60	1	1	1	C	1	1	1282	1	poli_8sides 18_whiteLine3.jpg	MediumShort_b10_cut1_MS_stereo_44KHz.wav
2	61	3	4	2	I	2	0	894	0	poli_8sides 4_whiteLine3.jpg	MediumShort_e22_cut1_stereo_44KHz.wav
2	62	4	3	2	I	2	0	1209	1	poli_8sides 12_whiteLine3.jpg	MediumShort_e16_cut1_stereo_44KHz.wav
2	63	2	2	1	C	1	1	1398	1	poli_8sides 10_whiteLine3.jpg	MediumShort_b16_cut3_MS_stereo_44KHz.wav
2	64	1	2	0	C	2	1	628	1	poli_8sides 18_whiteLine3.jpg	MediumShort_b16_cut3_MS_stereo_44KHz.wav
2	65	4	3	2	I	2	0	1021	1	poli_8sides 12_whiteLine3.jpg	MediumShort_e16_cut1_stereo_44KHz.wav
2	66	1	2	0	C	2	1	871	1	poli_8sides 18_whiteLine3.jpg	MediumShort_b16_cut3_MS_stereo_44KHz.wav
2	67	3	4	2	I	2	0	1103	0	poli_8sides 4_whiteLine3.jpg	MediumShort_e22_cut1_stereo_44KHz.wav
2	68	2	1	0	C	2	1	1195	1	poli_8sides 10_whiteLine3.jpg	MediumShort_b10_cut1_MS_stereo_44KHz.wav
2	69	1	1	1	C	1	1	873	1	poli_8sides 18_whiteLine3.jpg	MediumShort_b10_cut1_MS_stereo_44KHz.wav
2	70	3	3	2	I	2	0	1110	1	poli_8sides 4_whiteLine3.jpg	MediumShort_e16_cut1_stereo_44KHz.wav
2	71	4	4	2	I	1	0	1604	1	poli_8sides 12_whiteLine3.jpg	MediumShort_e22_cut1_stereo_44KHz.wav
2	72	2	2	1	C	1	1	962	1	poli_8sides 10_whiteLine3.jpg	MediumShort_b16_cut3_MS_stereo_44KHz.wav
2	73	3	3	2	I	2	0	1132	1	poli_8sides 4_whiteLine3.jpg	MediumShort_e16_cut1_stereo_44KHz.wav
2	74	2	2	1	C	1	1	840	1	poli_8sides 10_whiteLine3.jpg	MediumShort_b16_cut3_MS_stereo_44KHz.wav
2	75	1	2	0	C	2	1	565	1	poli_8sides 18_whiteLine3.jpg	MediumShort_b16_cut3_MS_stereo_44KHz.wav
2	76	4	4	2	I	1	0	1623	0	poli_8sides 12_whiteLine3.jpg	MediumShort_e22_cut1_stereo_44KHz.wav
2	77	2	1	0	C	2	1	1191	1	poli_8sides 10_whiteLine3.jpg	MediumShort_b10_cut1_MS_stereo_44KHz.wav
2	78	4	3	2	I	2	0	1153	1	poli_8sides 12_whiteLine3.jpg	MediumShort_e16_cut1_stereo_44KHz.wav
2	79	3	4	2	I	2	0	959	0	poli_8sides 4_whiteLine3.jpg	MediumShort_e22_cut1_stereo_44KHz.wav
2	80	1	1	1	C	1	1	1301	1	poli_8sides 18_whiteLine3.jpg	MediumShort_b10_cut1_MS_stereo_44KHz.wav
2	81	4	3	2	I	2	0	1174	0	poli_8sides 12_whiteLine3.jpg	MediumShort_e16_cut1_stereo_44KHz.wav
2	82	3	3	2	I	2	0	919	1	poli_8sides 4_whiteLine3.jpg	MediumShort_e16_cut1_stereo_44KHz.wav
2	83	2	1	0	C	1	0	1745	0	poli_8sides 10_whiteLine3.jpg	MediumShort_b10_cut1_MS_stereo_44KHz.wav
2	84	1	1	1	C	1	1	1189	1	poli_8sides 18_whiteLine3.jpg	MediumShort_b10_cut1_MS_stereo_44KHz.wav
2	85	2	2	1	C	1	1	1003	1	poli_8sides 10_whiteLine3.jpg	MediumShort_b16_cut3_MS_stereo_44KHz.wav
2	86	1	2	0	C	2	1	430	1	poli_8sides 18_whiteLine3.jpg	MediumShort_b16_cut3_MS_stereo_44KHz.wav
2	87	4	4	2	I	2	0	1332	1	poli_8sides 12_whiteLine3.jpg	MediumShort_e22_cut1_stereo_44KHz.wav
2	88	3	4	2	I	2	0	1095	1	poli_8sides 4_whiteLine3.jpg	MediumShort_e22_cut1_stereo_44KHz.wav
2	89	1	1	1	C	1	1	897	1	poli_8sides 18_whiteLine3.jpg	MediumShort_b10_cut1_MS_stereo_44KHz.wav
2	90	3	4	2	I	2	0	1207	0	poli_8sides 4_whiteLine3.jpg	MediumShort_e22_cut1_stereo_44KHz.wav
2	91	4	3	2	I	2	0	1468	0	poli_8sides 12_whiteLine3.jpg	MediumShort_e16_cut1_stereo_44KHz.wav
2	92	2	2	1	C	1	1	847	1	poli_8sides 10_whiteLine3.jpg	MediumShort_b16_cut3_MS_stereo_44KHz.wav
2	93	4	4	2	I	2	0	1475	1	poli_8sides 12_whiteLine3.jpg	MediumShort_e22_cut1_stereo_44KHz.wav
2	94	3	3	2	I	2	0	1451	1	poli_8sides 4_whiteLine3.jpg	MediumShort_e16_cut1_stereo_44KHz.wav
2	95	1	2	0	C	2	1	775	1	poli_8sides 18_whiteLine3.jpg	MediumShort_b16_cut3_MS_stereo_44KHz.wav
2	96	2	1	0	C	2	1	657	1	poli_8sides 10_whiteLine3.jpg	MediumShort_b10_cut1_MS_stereo_44KHz.wav
2	97	4	3	2	I	2	0	1056	1	poli_8sides 12_whiteLine3.jpg	MediumShort_e16_cut1_stereo_44KHz.wav
2	98	2	2	1	C	1	1	969	1	poli_8sides 10_whiteLine3.jpg	MediumShort_b16_cut3_MS_stereo_44KHz.wav
2	99	3	4	2	I	1	0	1201	1	poli_8sides 4_whiteLine3.jpg	MediumShort_e22_cut1_stereo_44KHz.wav
2	100	1	2	0	C	2	1	676	1	poli_8sides 18_whiteLine3.jpg	MediumShort_b16_cut3_MS_stereo_44KHz.wav
2	101	4	4	2	I	2	0	1106	0	poli_8sides 12_whiteLine3.jpg	MediumShort_e22_cut1_stereo_44KHz.wav
2	102	1	1	1	C	1	1	904	1	poli_8sides 18_whiteLine3.jpg	MediumShort_b10_cut1_MS_stereo_44KHz.wav
2	103	2	1	0	C	2	1	846	1	poli_8sides 10_whiteLine3.jpg	MediumShort_b10_cut1_MS_stereo_44KHz.wav
2	104	3	3	2	I	2	0	1438	0	poli_8sides 4_whiteLine3.jpg	MediumShort_e16_cut1_stereo_44KHz.wav
2	105	4	4	2	I	2	0	1485	1	poli_8sides 12_whiteLine3.jpg	MediumShort_e22_cut1_stereo_44KHz.wav
2	106	1	2	0	C	2	1	657	1	poli_8sides 18_whiteLine3.jpg	MediumShort_b16_cut3_MS_stereo_44KHz.wav
2	107	3	4	2	I	2	0	1207	1	poli_8sides 4_whiteLine3.jpg	MediumShort_e22_cut1_stereo_44KHz.wav
2	108	2	1	0	C	2	1	989	1	poli_8sides 10_whiteLine3.jpg	MediumShort_b10_cut1_MS_stereo_44KHz.wav
2	109	1	1	1	C	1	1	971	1	poli_8sides 18_whiteLine3.jpg	MediumShort_b10_cut1_MS_stereo_44KHz.wav
2	110	4	3	2	I	2	0	1213	1	poli_8sides 12_whiteLine3.jpg	MediumShort_e16_cut1_stereo_44KHz.wav
2	111	3	3	2	I	1	0	1393	1	poli_8sides 4_whiteLine3.jpg	MediumShort_e16_cut1_stereo_44KHz.wav
2	112	2	2	1	C	1	1	983	1	poli_8sides 10_whiteLine3.jpg	MediumShort_b16_cut3_MS_stereo_44KHz.wav
2	113	3	3	2	I	1	0	1517	1	poli_8sides 4_whiteLine3.jpg	MediumShort_e16_cut1_stereo_44KHz.wav
2	114	1	2	0	C	2	1	626	1	poli_8sides 18_whiteLine3.jpg	MediumShort_b16_cut3_MS_stereo_44KHz.wav
2	115	4	4	2	I	2	0	1432	0	poli_8sides 12_whiteLine3.jpg	MediumShort_e22_cut1_stereo_44KHz.wav
2	116	2	2	1	C	1	1	862	1	poli_8sides 10_whiteLine3.jpg	MediumShort_b16_cut3_MS_stereo_44KHz.wav
2	117	3	4	2	I	2	0	1419	1	poli_8sides 4_whiteLine3.jpg	MediumShort_e22_cut1_stereo_44KHz.wav
2	118	2	1	0	C	2	1	1461	1	poli_8sides 10_whiteLine3.jpg	MediumShort_b10_cut1_MS_stereo_44KHz.wav
2	119	1	1	1	C	1	1	1069	1	poli_8sides 18_whiteLine3.jpg	MediumShort_b10_cut1_MS_stereo_44KHz.wav
2	120	4	3	2	I	2	0	1320	1	poli_8sides 12_whiteLine3.jpg	MediumShort_e16_cut1_stereo_44KHz.wav
2	121	3	4	2	I	2	0	1355	0	poli_8sides 4_whiteLine3.jpg	MediumShort_e22_cut1_stereo_44KHz.wav
2	122	1	2	0	C	2	1	698	1	poli_8sides 18_whiteLine3.jpg	MediumShort_b16_cut3_MS_stereo_44KHz.wav
2	123	2	2	1	C	1	1	1021	1	poli_8sides 10_whiteLine3.jpg	MediumShort_b16_cut3_MS_stereo_44KHz.wav
2	124	4	4	2	I	2	0	1951	0	poli_8sides 12_whiteLine3.jpg	MediumShort_e22_cut1_stereo_44KHz.wav
2	125	2	1	0	C	2	1	1089	1	poli_8sides 10_whiteLine3.jpg	MediumShort_b10_cut1_MS_stereo_44KHz.wav
2	126	4	3	2	I	1	0	1495	0	poli_8sides 12_whiteLine3.jpg	MediumShort_e16_cut1_stereo_44KHz.wav
2	127	3	3	2	I	2	0	833	1	poli_8sides 4_whiteLine3.jpg	MediumShort_e16_cut1_stereo_44KHz.wav
2	128	1	1	1	C	1	1	1486	1	poli_8sides 18_whiteLine3.jpg	MediumShort_b10_cut1_MS_stereo_44KHz.wav
2	129	4	3	2	I	2	0	1287	1	poli_8sides 12_whiteLine3.jpg	MediumShort_e16_cut1_stereo_44KHz.wav
2	130	1	2	0	C	2	1	652	1	poli_8sides 18_whiteLine3.jpg	MediumShort_b16_cut3_MS_stereo_44KHz.wav
2	131	3	3	2	I	1	0	1146	1	poli_8sides 4_whiteLine3.jpg	MediumShort_e16_cut1_stereo_44KHz.wav
2	132	2	2	1	C	1	1	749	1	poli_8sides 10_whiteLine3.jpg	MediumShort_b16_cut3_MS_stereo_44KHz.wav
2	133	4	4	2	I	2	0	1521	1	poli_8sides 12_whiteLine3.jpg	MediumShort_e22_cut1_stereo_44KHz.wav
2	134	3	4	2	I	2	0	1077	0	poli_8sides 4_whiteLine3.jpg	MediumShort_e22_cut1_stereo_44KHz.wav
2	135	2	1	0	C	2	1	1092	1	poli_8sides 10_whiteLine3.jpg	MediumShort_b10_cut1_MS_stereo_44KHz.wav
2	136	1	1	1	C	1	1	835	1	poli_8sides 18_whiteLine3.jpg	MediumShort_b10_cut1_MS_stereo_44KHz.wav
2	137	4	3	2	I	2	0	1225	0	poli_8sides 12_whiteLine3.jpg	MediumShort_e16_cut1_stereo_44KHz.wav
2	138	3	3	2	I	2	0	1081	0	poli_8sides 4_whiteLine3.jpg	MediumShort_e16_cut1_stereo_44KHz.wav
2	139	2	1	0	C	2	1	1893	1	poli_8sides 10_whiteLine3.jpg	MediumShort_b10_cut1_MS_stereo_44KHz.wav
2	140	1	1	1	C	1	1	1974	1	poli_8sides 18_whiteLine3.jpg	MediumShort_b10_cut1_MS_stereo_44KHz.wav
2	141	4	4	2	I	1	0	1631	1	poli_8sides 12_whiteLine3.jpg	MediumShort_e22_cut1_stereo_44KHz.wav
2	142	3	4	2	I	1	0	1373	0	poli_8sides 4_whiteLine3.jpg	MediumShort_e22_cut1_stereo_44KHz.wav
2	143	2	2	1	C	1	1	817	1	poli_8sides 10_whiteLine3.jpg	MediumShort_b16_cut3_MS_stereo_44KHz.wav
2	144	1	2	0	C	2	1	752	1	poli_8sides 18_whiteLine3.jpg	MediumShort_b16_cut3_MS_stereo_44KHz.wav
2	145	4	3	2	I	2	0	1251	0	poli_8sides 12_whiteLine3.jpg	MediumShort_e16_cut1_stereo_44KHz.wav
2	146	3	3	2	I	2	0	1348	1	poli_8sides 4_whiteLine3.jpg	MediumShort_e16_cut1_stereo_44KHz.wav
2	147	2	2	1	C	1	1	982	1	poli_8sides 10_whiteLine3.jpg	MediumShort_b16_cut3_MS_stereo_44KHz.wav
2	148	1	2	0	C	2	1	747	1	poli_8sides 18_whiteLine3.jpg	MediumShort_b16_cut3_MS_stereo_44KHz.wav
2	149	4	4	2	I	2	0	1530	0	poli_8sides 12_whiteLine3.jpg	MediumShort_e22_cut1_stereo_44KHz.wav
2	150	1	1	1	C	1	1	958	1	poli_8sides 18_whiteLine3.jpg	MediumShort_b10_cut1_MS_stereo_44KHz.wav
2	151	3	4	2	I	1	0	1372	0	poli_8sides 4_whiteLine3.jpg	MediumShort_e22_cut1_stereo_44KHz.wav
2	152	2	1	0	C	1	0	837	0	poli_8sides 10_whiteLine3.jpg	MediumShort_b10_cut1_MS_stereo_44KHz.wav
2	153	1	2	0	C	2	1	602	1	poli_8sides 18_whiteLine3.jpg	MediumShort_b16_cut3_MS_stereo_44KHz.wav
2	154	2	1	0	C	2	1	844	1	poli_8sides 10_whiteLine3.jpg	MediumShort_b10_cut1_MS_stereo_44KHz.wav
2	155	3	3	2	I	2	0	1370	0	poli_8sides 4_whiteLine3.jpg	MediumShort_e16_cut1_stereo_44KHz.wav
2	156	4	4	2	I	2	0	1065	0	poli_8sides 12_whiteLine3.jpg	MediumShort_e22_cut1_stereo_44KHz.wav
2	157	3	4	2	I	2	0	856	0	poli_8sides 4_whiteLine3.jpg	MediumShort_e22_cut1_stereo_44KHz.wav
2	158	1	1	1	C	1	1	1120	1	poli_8sides 18_whiteLine3.jpg	MediumShort_b10_cut1_MS_stereo_44KHz.wav
2	159	4	3	2	I	2	0	1184	1	poli_8sides 12_whiteLine3.jpg	MediumShort_e16_cut1_stereo_44KHz.wav
2	160	2	2	1	C	1	1	973	1	poli_8sides 10_whiteLine3.jpg	MediumShort_b16_cut3_MS_stereo_44KHz.wav
2	161	1	1	1	C	1	1	665	1	poli_8sides 18_whiteLine3.jpg	MediumShort_b10_cut1_MS_stereo_44KHz.wav
2	162	4	4	2	I	2	0	1473	0	poli_8sides 12_whiteLine3.jpg	MediumShort_e22_cut1_stereo_44KHz.wav
2	163	3	4	2	I	2	0	893	1	poli_8sides 4_whiteLine3.jpg	MediumShort_e22_cut1_stereo_44KHz.wav
2	164	2	2	1	C	1	1	1004	1	poli_8sides 10_whiteLine3.jpg	MediumShort_b16_cut3_MS_stereo_44KHz.wav
2	165	4	3	2	I	2	0	1152	0	poli_8sides 12_whiteLine3.jpg	MediumShort_e16_cut1_stereo_44KHz.wav
2	166	1	2	0	C	2	1	630	1	poli_8sides 18_whiteLine3.jpg	MediumShort_b16_cut3_MS_stereo_44KHz.wav
2	167	2	1	0	C	2	1	995	1	poli_8sides 10_whiteLine3.jpg	MediumShort_b10_cut1_MS_stereo_44KHz.wav
2	168	3	3	2	I	2	0	1152	1	poli_8sides 4_whiteLine3.jpg	MediumShort_e16_cut1_stereo_44KHz.wav
2	169	2	2	1	C	1	1	977	1	poli_8sides 10_whiteLine3.jpg	MediumShort_b16_cut3_MS_stereo_44KHz.wav
2	170	4	4	2	I	2	0	1350	0	poli_8sides 12_whiteLine3.jpg	MediumShort_e22_cut1_stereo_44KHz.wav
2	171	3	3	2	I	2	0	1502	1	poli_8sides 4_whiteLine3.jpg	MediumShort_e16_cut1_stereo_44KHz.wav
2	172	1	2	0	C	2	1	763	1	poli_8sides 18_whiteLine3.jpg	MediumShort_b16_cut3_MS_stereo_44KHz.wav
2	173	2	1	0	C	2	1	924	1	poli_8sides 10_whiteLine3.jpg	MediumShort_b10_cut1_MS_stereo_44KHz.wav
2	174	4	3	2	I	2	0	1424	0	poli_8sides 12_whiteLine3.jpg	MediumShort_e16_cut1_stereo_44KHz.wav
2	175	1	1	1	C	1	1	1115	1	poli_8sides 18_whiteLine3.jpg	MediumShort_b10_cut1_MS_stereo_44KHz.wav
2	176	3	4	2	I	2	0	1276	0	poli_8sides 4_whiteLine3.jpg	MediumShort_e22_cut1_stereo_44KHz.wav
2	177	1	2	0	C	2	1	617	1	poli_8sides 18_whiteLine3.jpg	MediumShort_b16_cut3_MS_stereo_44KHz.wav
2	178	3	3	2	I	1	0	1487	0	poli_8sides 4_whiteLine3.jpg	MediumShort_e16_cut1_stereo_44KHz.wav
2	179	2	1	0	C	2	1	860	1	poli_8sides 10_whiteLine3.jpg	MediumShort_b10_cut1_MS_stereo_44KHz.wav
2	180	4	3	2	I	1	0	1431	1	poli_8sides 12_whiteLine3.jpg	MediumShort_e16_cut1_stereo_44KHz.wav
2	181	3	4	2	I	2	0	1219	1	poli_8sides 4_whiteLine3.jpg	MediumShort_e22_cut1_stereo_44KHz.wav
2	182	1	1	1	C	1	1	1215	1	poli_8sides 18_whiteLine3.jpg	MediumShort_b10_cut1_MS_stereo_44KHz.wav
2	183	4	4	2	I	2	0	1583	1	poli_8sides 12_whiteLine3.jpg	MediumShort_e22_cut1_stereo_44KHz.wav
2	184	2	2	1	C	1	1	895	1	poli_8sides 10_whiteLine3.jpg	MediumShort_b16_cut3_MS_stereo_44KHz.wav
2	185	1	2	0	C	2	1	642	1	poli_8sides 18_whiteLine3.jpg	MediumShort_b16_cut3_MS_stereo_44KHz.wav
2	186	2	1	0	C	2	1	1078	1	poli_8sides 10_whiteLine3.jpg	MediumShort_b10_cut1_MS_stereo_44KHz.wav
2	187	4	3	2	I	1	0	1614	0	poli_8sides 12_whiteLine3.jpg	MediumShort_e16_cut1_stereo_44KHz.wav
2	188	3	4	2	I	2	0	1169	1	poli_8sides 4_whiteLine3.jpg	MediumShort_e22_cut1_stereo_44KHz.wav
2	189	1	1	1	C	1	1	875	1	poli_8sides 18_whiteLine3.jpg	MediumShort_b10_cut1_MS_stereo_44KHz.wav
2	190	2	2	1	C	1	1	845	1	poli_8sides 10_whiteLine3.jpg	MediumShort_b16_cut3_MS_stereo_44KHz.wav
2	191	4	4	2	I	2	0	1437	1	poli_8sides 12_whiteLine3.jpg	MediumShort_e22_cut1_stereo_44KHz.wav
2	192	3	3	2	I	2	0	1322	0	poli_8sides 4_whiteLine3.jpg	MediumShort_e16_cut1_stereo_44KHz.wav
2	193	1	2	0	C	2	1	637	1	poli_8sides 18_whiteLine3.jpg	MediumShort_b16_cut3_MS_stereo_44KHz.wav
2	194	2	1	0	C	2	1	1224	1	poli_8sides 10_whiteLine3.jpg	MediumShort_b10_cut1_MS_stereo_44KHz.wav
2	195	4	3	2	I	1	0	1844	1	poli_8sides 12_whiteLine3.jpg	MediumShort_e16_cut1_stereo_44KHz.wav
2	196	3	4	2	I	2	0	1162	1	poli_8sides 4_whiteLine3.jpg	MediumShort_e22_cut1_stereo_44KHz.wav
2	197	4	4	2	I	2	0	1574	1	poli_8sides 12_whiteLine3.jpg	MediumShort_e22_cut1_stereo_44KHz.wav
2	198	2	2	1	C	1	1	893	1	poli_8sides 10_whiteLine3.jpg	MediumShort_b16_cut3_MS_stereo_44KHz.wav
2	199	1	1	1	C	1	1	738	1	poli_8sides 18_whiteLine3.jpg	MediumShort_b10_cut1_MS_stereo_44KHz.wav
2	200	3	3	2	I	2	0	1288	0	poli_8sides 4_whiteLine3.jpg	MediumShort_e16_cut1_stereo_44KHz.wav
3	1	2	2	1	C	2	0	1470	0	poli_8sides 9_whiteLine3.jpg	MediumLong_e17_cut2_stereo_44KHz.wav
3	2	1	2	0	C	2	1	1224	1	poli_8sides 15_whiteLine3.jpg	MediumLong_e17_cut2_stereo_44KHz.wav
3	3	3	3	2	I	2	0	1756	0	poli_8sides 7_whiteLine3.jpg	Medium_e01_cut1_stereo_44KHz.wav
3	4	4	3	2	I	2	0	1167	1	poli_8sides 6_whiteLine3.jpg	Medium_e01_cut1_stereo_44KHz.wav
3	5	1	1	1	C	1	1	1193	1	poli_8sides 15_whiteLine3.jpg	Medium_e13_stereo_44KHz.wav
3	6	4	4	2	I	1	0	1129	0	poli_8sides 6_whiteLine3.jpg	Medium_e26_stereo_44KHz.wav
3	7	3	4	2	I	1	0	1460	0	poli_8sides 7_whiteLine3.jpg	Medium_e26_stereo_44KHz.wav
3	8	2	1	0	C	2	1	1286	1	poli_8sides 9_whiteLine3.jpg	Medium_e13_stereo_44KHz.wav
3	9	4	3	2	I	2	0	1793	0	poli_8sides 6_whiteLine3.jpg	Medium_e01_cut1_stereo_44KHz.wav
3	10	3	3	2	I	2	0	870	1	poli_8sides 7_whiteLine3.jpg	Medium_e01_cut1_stereo_44KHz.wav
3	11	1	2	0	C	2	1	835	1	poli_8sides 15_whiteLine3.jpg	MediumLong_e17_cut2_stereo_44KHz.wav
3	12	2	1	0	C	1	0	1914	0	poli_8sides 9_whiteLine3.jpg	Medium_e13_stereo_44KHz.wav
3	13	3	4	2	I	2	0	1731	0	poli_8sides 7_whiteLine3.jpg	Medium_e26_stereo_44KHz.wav
3	14	2	2	1	C	1	1	1049	1	poli_8sides 9_whiteLine3.jpg	MediumLong_e17_cut2_stereo_44KHz.wav
3	15	4	4	2	I	2	0	1934	1	poli_8sides 6_whiteLine3.jpg	Medium_e26_stereo_44KHz.wav
3	16	1	1	1	C	1	1	807	1	poli_8sides 15_whiteLine3.jpg	Medium_e13_stereo_44KHz.wav
3	17	3	3	2	I	0	0	0	0	poli_8sides 7_whiteLine3.jpg	Medium_e01_cut1_stereo_44KHz.wav
3	18	4	4	2	I	2	0	1204	0	poli_8sides 6_whiteLine3.jpg	Medium_e26_stereo_44KHz.wav
3	19	2	2	1	C	1	1	1123	1	poli_8sides 9_whiteLine3.jpg	MediumLong_e17_cut2_stereo_44KHz.wav
3	20	1	2	0	C	2	1	783	1	poli_8sides 15_whiteLine3.jpg	MediumLong_e17_cut2_stereo_44KHz.wav
3	21	4	3	2	I	2	0	1336	1	poli_8sides 6_whiteLine3.jpg	Medium_e01_cut1_stereo_44KHz.wav
3	22	1	1	1	C	1	1	935	1	poli_8sides 15_whiteLine3.jpg	Medium_e13_stereo_44KHz.wav
3	23	2	1	0	C	2	1	619	1	poli_8sides 9_whiteLine3.jpg	Medium_e13_stereo_44KHz.wav
3	24	3	4	2	I	2	0	1341	1	poli_8sides 7_whiteLine3.jpg	Medium_e26_stereo_44KHz.wav
3	25	1	1	1	C	1	1	676	1	poli_8sides 15_whiteLine3.jpg	Medium_e13_stereo_44KHz.wav
3	26	3	3	2	I	1	0	1428	0	poli_8sides 7_whiteLine3.jpg	Medium_e01_cut1_stereo_44KHz.wav
3	27	2	1	0	C	2	1	802	1	poli_8sides 9_whiteLine3.jpg	Medium_e13_stereo_44KHz.wav
3	28	4	4	2	I	2	0	1310	1	poli_8sides 6_whiteLine3.jpg	Medium_e26_stereo_44KHz.wav
3	29	1	2	0	C	2	1	647	1	poli_8sides 15_whiteLine3.jpg	MediumLong_e17_cut2_stereo_44KHz.wav
3	30	4	3	2	I	2	0	873	0	poli_8sides 6_whiteLine3.jpg	Medium_e01_cut1_stereo_44KHz.wav
3	31	3	4	2	I	1	0	1226	1	poli_8sides 7_whiteLine3.jpg	Medium_e26_stereo_44KHz.wav
3	32	2	2	1	C	1	1	853	1	poli_8sides 9_whiteLine3.jpg	MediumLong_e17_cut2_stereo_44KHz.wav
3	33	4	3	2	I	2	0	916	0	poli_8sides 6_whiteLine3.jpg	Medium_e01_cut1_stereo_44KHz.wav
3	34	3	4	2	I	1	0	1585	1	poli_8sides 7_whiteLine3.jpg	Medium_e26_stereo_44KHz.wav
3	35	1	2	0	C	2	1	655	1	poli_8sides 15_whiteLine3.jpg	MediumLong_e17_cut2_stereo_44KHz.wav
3	36	2	1	0	C	2	1	544	1	poli_8sides 9_whiteLine3.jpg	Medium_e13_stereo_44KHz.wav
3	37	1	1	1	C	1	1	783	1	poli_8sides 15_whiteLine3.jpg	Medium_e13_stereo_44KHz.wav
3	38	4	4	2	I	2	0	1119	0	poli_8sides 6_whiteLine3.jpg	Medium_e26_stereo_44KHz.wav
3	39	2	2	1	C	1	1	776	1	poli_8sides 9_whiteLine3.jpg	MediumLong_e17_cut2_stereo_44KHz.wav
3	40	3	3	2	I	1	0	1318	1	poli_8sides 7_whiteLine3.jpg	Medium_e01_cut1_stereo_44KHz.wav
3	41	4	4	2	I	2	0	778	1	poli_8sides 6_whiteLine3.jpg	Medium_e26_stereo_44KHz.wav
3	42	2	1	0	C	2	1	709	1	poli_8sides 9_whiteLine3.jpg	Medium_e13_stereo_44KHz.wav
3	43	1	2	0	C	2	1	617	1	poli_8sides 15_whiteLine3.jpg	MediumLong_e17_cut2_stereo_44KHz.wav
3	44	3	4	2	I	1	0	817	0	poli_8sides 7_whiteLine3.jpg	Medium_e26_stereo_44KHz.wav
3	45	1	1	1	C	1	1	933	1	poli_8sides 15_whiteLine3.jpg	Medium_e13_stereo_44KHz.wav
3	46	3	3	2	I	2	0	629	1	poli_8sides 7_whiteLine3.jpg	Medium_e01_cut1_stereo_44KHz.wav
3	47	4	3	2	I	1	0	976	1	poli_8sides 6_whiteLine3.jpg	Medium_e01_cut1_stereo_44KHz.wav
3	48	2	2	1	C	1	1	774	1	poli_8sides 9_whiteLine3.jpg	MediumLong_e17_cut2_stereo_44KHz.wav
3	49	4	4	2	I	2	0	1423	1	poli_8sides 6_whiteLine3.jpg	Medium_e26_stereo_44KHz.wav
3	50	2	2	1	C	1	1	715	1	poli_8sides 9_whiteLine3.jpg	MediumLong_e17_cut2_stereo_44KHz.wav
3	51	1	1	1	C	1	1	712	1	poli_8sides 15_whiteLine3.jpg	Medium_e13_stereo_44KHz.wav
3	52	3	4	2	I	1	0	1112	0	poli_8sides 7_whiteLine3.jpg	Medium_e26_stereo_44KHz.wav
3	53	2	1	0	C	2	1	721	1	poli_8sides 9_whiteLine3.jpg	Medium_e13_stereo_44KHz.wav
3	54	3	3	2	I	2	0	812	1	poli_8sides 7_whiteLine3.jpg	Medium_e01_cut1_stereo_44KHz.wav
3	55	1	2	0	C	2	1	1053	1	poli_8sides 15_whiteLine3.jpg	MediumLong_e17_cut2_stereo_44KHz.wav
3	56	4	3	2	I	1	0	875	1	poli_8sides 6_whiteLine3.jpg	Medium_e01_cut1_stereo_44KHz.wav
3	57	2	1	0	C	2	1	744	1	poli_8sides 9_whiteLine3.jpg	Medium_e13_stereo_44KHz.wav
3	58	4	4	2	I	2	0	713	0	poli_8sides 6_whiteLine3.jpg	Medium_e26_stereo_44KHz.wav
3	59	1	2	0	C	2	1	1149	1	poli_8sides 15_whiteLine3.jpg	MediumLong_e17_cut2_stereo_44KHz.wav
3	60	3	3	2	I	2	0	657	1	poli_8sides 7_whiteLine3.jpg	Medium_e01_cut1_stereo_44KHz.wav
3	61	4	3	2	I	1	0	1546	1	poli_8sides 6_whiteLine3.jpg	Medium_e01_cut1_stereo_44KHz.wav
3	62	1	1	1	C	1	1	775	1	poli_8sides 15_whiteLine3.jpg	Medium_e13_stereo_44KHz.wav
3	63	3	4	2	I	1	0	1237	1	poli_8sides 7_whiteLine3.jpg	Medium_e26_stereo_44KHz.wav
3	64	2	2	1	C	1	1	1111	1	poli_8sides 9_whiteLine3.jpg	MediumLong_e17_cut2_stereo_44KHz.wav
3	65	1	1	1	C	1	1	807	1	poli_8sides 15_whiteLine3.jpg	Medium_e13_stereo_44KHz.wav
3	66	2	1	0	C	2	1	820	1	poli_8sides 9_whiteLine3.jpg	Medium_e13_stereo_44KHz.wav
3	67	3	3	2	I	2	0	1262	0	poli_8sides 7_whiteLine3.jpg	Medium_e01_cut1_stereo_44KHz.wav
3	68	4	3	2	I	2	0	1212	1	poli_8sides 6_whiteLine3.jpg	Medium_e01_cut1_stereo_44KHz.wav
3	69	2	2	1	C	1	1	801	1	poli_8sides 9_whiteLine3.jpg	MediumLong_e17_cut2_stereo_44KHz.wav
3	70	3	4	2	I	1	0	1572	1	poli_8sides 7_whiteLine3.jpg	Medium_e26_stereo_44KHz.wav
3	71	1	2	0	C	2	1	695	1	poli_8sides 15_whiteLine3.jpg	MediumLong_e17_cut2_stereo_44KHz.wav
3	72	4	4	2	I	2	0	922	0	poli_8sides 6_whiteLine3.jpg	Medium_e26_stereo_44KHz.wav
3	73	3	4	2	I	2	0	1271	1	poli_8sides 7_whiteLine3.jpg	Medium_e26_stereo_44KHz.wav
3	74	2	1	0	C	2	1	601	1	poli_8sides 9_whiteLine3.jpg	Medium_e13_stereo_44KHz.wav
3	75	1	2	0	C	2	1	847	1	poli_8sides 15_whiteLine3.jpg	MediumLong_e17_cut2_stereo_44KHz.wav
3	76	4	3	2	I	1	0	1728	1	poli_8sides 6_whiteLine3.jpg	Medium_e01_cut1_stereo_44KHz.wav
3	77	1	1	1	C	1	1	821	1	poli_8sides 15_whiteLine3.jpg	Medium_e13_stereo_44KHz.wav
3	78	4	4	2	I	2	0	1576	1	poli_8sides 6_whiteLine3.jpg	Medium_e26_stereo_44KHz.wav
3	79	2	2	1	C	1	1	941	1	poli_8sides 9_whiteLine3.jpg	MediumLong_e17_cut2_stereo_44KHz.wav
3	80	3	3	2	I	2	0	1464	1	poli_8sides 7_whiteLine3.jpg	Medium_e01_cut1_stereo_44KHz.wav
3	81	1	2	0	C	2	1	1299	1	poli_8sides 15_whiteLine3.jpg	MediumLong_e17_cut2_stereo_44KHz.wav
3	82	3	4	2	I	1	0	1414	0	poli_8sides 7_whiteLine3.jpg	Medium_e26_stereo_44KHz.wav
3	83	2	2	1	C	1	1	760	1	poli_8sides 9_whiteLine3.jpg	MediumLong_e17_cut2_stereo_44KHz.wav
3	84	4	3	2	I	1	0	1268	1	poli_8sides 6_whiteLine3.jpg	Medium_e01_cut1_stereo_44KHz.wav
3	85	2	1	0	C	1	0	797	0	poli_8sides 9_whiteLine3.jpg	Medium_e13_stereo_44KHz.wav
3	86	4	4	2	I	2	0	1159	1	poli_8sides 6_whiteLine3.jpg	Medium_e26_stereo_44KHz.wav
3	87	1	1	1	C	1	1	900	1	poli_8sides 15_whiteLine3.jpg	Medium_e13_stereo_44KHz.wav
3	88	3	3	2	I	2	0	1649	0	poli_8sides 7_whiteLine3.jpg	Medium_e01_cut1_stereo_44KHz.wav
3	89	4	4	2	I	2	0	746	1	poli_8sides 6_whiteLine3.jpg	Medium_e26_stereo_44KHz.wav
3	90	2	2	1	C	1	1	702	1	poli_8sides 9_whiteLine3.jpg	MediumLong_e17_cut2_stereo_44KHz.wav
3	91	1	2	0	C	2	1	690	1	poli_8sides 15_whiteLine3.jpg	MediumLong_e17_cut2_stereo_44KHz.wav
3	92	3	3	2	I	2	0	1072	1	poli_8sides 7_whiteLine3.jpg	Medium_e01_cut1_stereo_44KHz.wav
3	93	1	1	1	C	1	1	769	1	poli_8sides 15_whiteLine3.jpg	Medium_e13_stereo_44KHz.wav
3	94	4	3	2	I	1	0	1475	1	poli_8sides 6_whiteLine3.jpg	Medium_e01_cut1_stereo_44KHz.wav
3	95	2	1	0	C	2	1	754	1	poli_8sides 9_whiteLine3.jpg	Medium_e13_stereo_44KHz.wav
3	96	3	4	2	I	1	0	1271	0	poli_8sides 7_whiteLine3.jpg	Medium_e26_stereo_44KHz.wav
3	97	1	2	0	C	2	1	756	1	poli_8sides 15_whiteLine3.jpg	MediumLong_e17_cut2_stereo_44KHz.wav
3	98	4	4	2	I	2	0	1811	1	poli_8sides 6_whiteLine3.jpg	Medium_e26_stereo_44KHz.wav
3	99	2	2	1	C	1	1	1198	1	poli_8sides 9_whiteLine3.jpg	MediumLong_e17_cut2_stereo_44KHz.wav
3	100	3	4	2	I	1	0	1130	1	poli_8sides 7_whiteLine3.jpg	Medium_e26_stereo_44KHz.wav
3	101	2	1	0	C	2	1	829	1	poli_8sides 9_whiteLine3.jpg	Medium_e13_stereo_44KHz.wav
3	102	1	1	1	C	1	1	728	1	poli_8sides 15_whiteLine3.jpg	Medium_e13_stereo_44KHz.wav
3	103	3	3	2	I	2	0	1055	0	poli_8sides 7_whiteLine3.jpg	Medium_e01_cut1_stereo_44KHz.wav
3	104	4	3	2	I	2	0	1787	1	poli_8sides 6_whiteLine3.jpg	Medium_e01_cut1_stereo_44KHz.wav
3	105	2	1	0	C	2	1	701	1	poli_8sides 9_whiteLine3.jpg	Medium_e13_stereo_44KHz.wav
3	106	1	1	1	C	1	1	750	1	poli_8sides 15_whiteLine3.jpg	Medium_e13_stereo_44KHz.wav
3	107	4	3	2	I	1	0	1285	0	poli_8sides 6_whiteLine3.jpg	Medium_e01_cut1_stereo_44KHz.wav
3	108	3	4	2	I	1	0	1175	0	poli_8sides 7_whiteLine3.jpg	Medium_e26_stereo_44KHz.wav
3	109	2	2	1	C	1	1	1055	1	poli_8sides 9_whiteLine3.jpg	MediumLong_e17_cut2_stereo_44KHz.wav
3	110	1	2	0	C	2	1	792	1	poli_8sides 15_whiteLine3.jpg	MediumLong_e17_cut2_stereo_44KHz.wav
3	111	4	4	2	I	2	0	908	0	poli_8sides 6_whiteLine3.jpg	Medium_e26_stereo_44KHz.wav
3	112	3	3	2	I	2	0	686	1	poli_8sides 7_whiteLine3.jpg	Medium_e01_cut1_stereo_44KHz.wav
3	113	1	1	1	C	1	1	709	1	poli_8sides 15_whiteLine3.jpg	Medium_e13_stereo_44KHz.wav
3	114	2	1	0	C	2	1	843	1	poli_8sides 9_whiteLine3.jpg	Medium_e13_stereo_44KHz.wav
3	115	4	4	2	I	2	0	1347	0	poli_8sides 6_whiteLine3.jpg	Medium_e26_stereo_44KHz.wav
3	116	3	3	2	I	2	0	719	0	poli_8sides 7_whiteLine3.jpg	Medium_e01_cut1_stereo_44KHz.wav
3	117	2	2	1	C	1	1	711	1	poli_8sides 9_whiteLine3.jpg	MediumLong_e17_cut2_stereo_44KHz.wav
3	118	3	4	2	I	2	0	1241	1	poli_8sides 7_whiteLine3.jpg	Medium_e26_stereo_44KHz.wav
3	119	1	2	0	C	2	1	661	1	poli_8sides 15_whiteLine3.jpg	MediumLong_e17_cut2_stereo_44KHz.wav
3	120	4	3	2	I	2	0	774	1	poli_8sides 6_whiteLine3.jpg	Medium_e01_cut1_stereo_44KHz.wav
3	121	3	4	2	I	2	0	1526	0	poli_8sides 7_whiteLine3.jpg	Medium_e26_stereo_44KHz.wav
3	122	1	1	1	C	1	1	1234	1	poli_8sides 15_whiteLine3.jpg	Medium_e13_stereo_44KHz.wav
3	123	4	4	2	I	2	0	1684	0	poli_8sides 6_whiteLine3.jpg	Medium_e26_stereo_44KHz.wav
3	124	2	2	1	C	1	1	776	1	poli_8sides 9_whiteLine3.jpg	MediumLong_e17_cut2_stereo_44KHz.wav
3	125	1	2	0	C	2	1	642	1	poli_8sides 15_whiteLine3.jpg	MediumLong_e17_cut2_stereo_44KHz.wav
3	126	3	3	2	I	2	0	1227	0	poli_8sides 7_whiteLine3.jpg	Medium_e01_cut1_stereo_44KHz.wav
3	127	2	1	0	C	2	1	660	1	poli_8sides 9_whiteLine3.jpg	Medium_e13_stereo_44KHz.wav
3	128	4	3	2	I	2	0	1271	0	poli_8sides 6_whiteLine3.jpg	Medium_e01_cut1_stereo_44KHz.wav
3	129	1	2	0	C	2	1	598	1	poli_8sides 15_whiteLine3.jpg	MediumLong_e17_cut2_stereo_44KHz.wav
3	130	4	3	2	I	1	0	1252	1	poli_8sides 6_whiteLine3.jpg	Medium_e01_cut1_stereo_44KHz.wav
3	131	2	1	0	C	2	1	694	1	poli_8sides 9_whiteLine3.jpg	Medium_e13_stereo_44KHz.wav
3	132	3	3	2	I	2	0	732	0	poli_8sides 7_whiteLine3.jpg	Medium_e01_cut1_stereo_44KHz.wav
3	133	2	2	1	C	1	1	777	1	poli_8sides 9_whiteLine3.jpg	MediumLong_e17_cut2_stereo_44KHz.wav
3	134	4	4	2	I	2	0	1321	0	poli_8sides 6_whiteLine3.jpg	Medium_e26_stereo_44KHz.wav
3	135	1	1	1	C	1	1	880	1	poli_8sides 15_whiteLine3.jpg	Medium_e13_stereo_44KHz.wav
3	136	3	4	2	I	2	0	1341	0	poli_8sides 7_whiteLine3.jpg	Medium_e26_stereo_44KHz.wav
3	137	4	4	2	I	2	0	1431	0	poli_8sides 6_whiteLine3.jpg	Medium_e26_stereo_44KHz.wav
3	138	1	2	0	C	2	1	667	1	poli_8sides 15_whiteLine3.jpg	MediumLong_e17_cut2_stereo_44KHz.wav
3	139	3	3	2	I	2	0	983	1	poli_8sides 7_whiteLine3.jpg	Medium_e01_cut1_stereo_44KHz.wav
3	140	2	2	1	C	1	1	968	1	poli_8sides 9_whiteLine3.jpg	MediumLong_e17_cut2_stereo_44KHz.wav
3	141	4	3	2	I	2	0	1387	0	poli_8sides 6_whiteLine3.jpg	Medium_e01_cut1_stereo_44KHz.wav
3	142	3	4	2	I	2	0	1783	1	poli_8sides 7_whiteLine3.jpg	Medium_e26_stereo_44KHz.wav
3	143	2	1	0	C	2	1	829	1	poli_8sides 9_whiteLine3.jpg	Medium_e13_stereo_44KHz.wav
3	144	1	1	1	C	1	1	1002	1	poli_8sides 15_whiteLine3.jpg	Medium_e13_stereo_44KHz.wav
3	145	2	2	1	C	1	1	739	1	poli_8sides 9_whiteLine3.jpg	MediumLong_e17_cut2_stereo_44KHz.wav
3	146	4	3	2	I	2	0	1239	1	poli_8sides 6_whiteLine3.jpg	Medium_e01_cut1_stereo_44KHz.wav
3	147	1	1	1	C	1	1	708	1	poli_8sides 15_whiteLine3.jpg	Medium_e13_stereo_44KHz.wav
3	148	3	3	2	I	1	0	1604	1	poli_8sides 7_whiteLine3.jpg	Medium_e01_cut1_stereo_44KHz.wav
3	149	1	2	0	C	2	1	754	1	poli_8sides 15_whiteLine3.jpg	MediumLong_e17_cut2_stereo_44KHz.wav
3	150	4	4	2	I	1	0	1601	0	poli_8sides 6_whiteLine3.jpg	Medium_e26_stereo_44KHz.wav
3	151	3	4	2	I	1	0	1264	0	poli_8sides 7_whiteLine3.jpg	Medium_e26_stereo_44KHz.wav
3	152	2	1	0	C	2	1	766	1	poli_8sides 9_whiteLine3.jpg	Medium_e13_stereo_44KHz.wav
3	153	1	1	1	C	1	1	982	1	poli_8sides 15_whiteLine3.jpg	Medium_e13_stereo_44KHz.wav
3	154	4	3	2	I	2	0	1309	0	poli_8sides 6_whiteLine3.jpg	Medium_e01_cut1_stereo_44KHz.wav
3	155	2	1	0	C	2	1	692	1	poli_8sides 9_whiteLine3.jpg	Medium_e13_stereo_44KHz.wav
3	156	3	3	2	I	2	0	1198	0	poli_8sides 7_whiteLine3.jpg	Medium_e01_cut1_stereo_44KHz.wav
3	157	4	4	2	I	1	0	1646	0	poli_8sides 6_whiteLine3.jpg	Medium_e26_stereo_44KHz.wav
3	158	2	2	1	C	1	1	807	1	poli_8sides 9_whiteLine3.jpg	MediumLong_e17_cut2_stereo_44KHz.wav
3	159	3	4	2	I	2	0	1350	0	poli_8sides 7_whiteLine3.jpg	Medium_e26_stereo_44KHz.wav
3	160	1	2	0	C	2	1	662	1	poli_8sides 15_whiteLine3.jpg	MediumLong_e17_cut2_stereo_44KHz.wav
3	161	2	1	0	C	2	1	1170	1	poli_8sides 9_whiteLine3.jpg	Medium_e13_stereo_44KHz.wav
3	162	4	4	2	I	2	0	1485	0	poli_8sides 6_whiteLine3.jpg	Medium_e26_stereo_44KHz.wav
3	163	1	1	1	C	1	1	1371	1	poli_8sides 15_whiteLine3.jpg	Medium_e13_stereo_44KHz.wav
3	164	3	4	2	I	2	0	1033	1	poli_8sides 7_whiteLine3.jpg	Medium_e26_stereo_44KHz.wav
3	165	1	2	0	C	2	1	735	1	poli_8sides 15_whiteLine3.jpg	MediumLong_e17_cut2_stereo_44KHz.wav
3	166	3	3	2	I	2	0	1886	0	poli_8sides 7_whiteLine3.jpg	Medium_e01_cut1_stereo_44KHz.wav
3	167	4	3	2	I	1	0	1216	0	poli_8sides 6_whiteLine3.jpg	Medium_e01_cut1_stereo_44KHz.wav
3	168	2	2	1	C	1	1	751	1	poli_8sides 9_whiteLine3.jpg	MediumLong_e17_cut2_stereo_44KHz.wav
3	169	4	3	2	I	2	0	622	0	poli_8sides 6_whiteLine3.jpg	Medium_e01_cut1_stereo_44KHz.wav
3	170	1	1	1	C	1	1	1453	1	poli_8sides 15_whiteLine3.jpg	Medium_e13_stereo_44KHz.wav
3	171	2	2	1	C	1	1	696	1	poli_8sides 9_whiteLine3.jpg	MediumLong_e17_cut2_stereo_44KHz.wav
3	172	3	3	2	I	2	0	1650	1	poli_8sides 7_whiteLine3.jpg	Medium_e01_cut1_stereo_44KHz.wav
3	173	4	4	2	I	1	0	1778	1	poli_8sides 6_whiteLine3.jpg	Medium_e26_stereo_44KHz.wav
3	174	1	2	0	C	2	1	713	1	poli_8sides 15_whiteLine3.jpg	MediumLong_e17_cut2_stereo_44KHz.wav
3	175	2	1	0	C	2	1	770	1	poli_8sides 9_whiteLine3.jpg	Medium_e