block	trial	Vstim	Astim	match	C/I	resp	result	RT	fb	V-file	A-file
LR

0	1	2	4	0	C	0	0	0	0	Ⴞ	cut_g_stereo_44KHz.wav
0	2	2	3	1	C	0	0	0	0	Ⴞ	cut_eeuw_stereo_44KHz.wav
0	3	1	1	1	C	0	0	0	0	Ⴋ	cut_ee_stereo_44KHz.wav
0	4	1	2	0	C	0	0	0	0	Ⴋ	cut_oo_stereo_44KHz.wav
0	5	1	1	1	C	2	1	269	1	Ⴋ	cut_ee_stereo_44KHz.wav
0	6	2	3	1	C	2	1	928	1	Ⴞ	cut_eeuw_stereo_44KHz.wav
0	7	1	2	0	C	2	0	978	0	Ⴋ	cut_oo_stereo_44KHz.wav
0	8	2	4	0	C	1	1	954	1	Ⴞ	cut_g_stereo_44KHz.wav
0	9	2	3	1	C	0	0	0	0	Ⴞ	cut_eeuw_stereo_44KHz.wav
0	10	1	2	0	C	1	1	323	1	Ⴋ	cut_oo_stereo_44KHz.wav
0	11	1	1	1	C	2	1	409	1	Ⴋ	cut_ee_stereo_44KHz.wav
0	12	2	4	0	C	1	1	719	1	Ⴞ	cut_g_stereo_44KHz.wav
0	13	2	3	1	C	1	0	805	0	Ⴞ	cut_eeuw_stereo_44KHz.wav
0	14	1	2	0	C	2	0	355	0	Ⴋ	cut_oo_stereo_44KHz.wav
0	15	2	4	0	C	1	1	752	1	Ⴞ	cut_g_stereo_44KHz.wav
0	16	1	1	1	C	2	1	513	1	Ⴋ	cut_ee_stereo_44KHz.wav
0	17	2	3	1	C	2	1	589	1	Ⴞ	cut_eeuw_stereo_44KHz.wav
0	18	2	4	0	C	1	1	336	1	Ⴞ	cut_g_stereo_44KHz.wav
0	19	1	1	1	C	2	1	477	1	Ⴋ	cut_ee_stereo_44KHz.wav
0	20	1	2	0	C	1	1	631	1	Ⴋ	cut_oo_stereo_44KHz.wav
0	21	2	3	1	C	2	1	472	1	Ⴞ	cut_eeuw_stereo_44KHz.wav
0	22	2	4	0	C	2	0	973	0	Ⴞ	cut_g_stereo_44KHz.wav
0	23	1	1	1	C	1	0	325	0	Ⴋ	cut_ee_stereo_44KHz.wav
0	24	1	2	0	C	2	0	480	0	Ⴋ	cut_oo_stereo_44KHz.wav
0	25	2	3	1	C	1	0	350	0	Ⴞ	cut_eeuw_stereo_44KHz.wav
0	26	1	1	1	C	2	1	211	1	Ⴋ	cut_ee_stereo_44KHz.wav
0	27	1	2	0	C	2	0	778	0	Ⴋ	cut_oo_stereo_44KHz.wav
0	28	2	4	0	C	1	1	388	1	Ⴞ	cut_g_stereo_44KHz.wav
0	29	2	4	0	C	2	0	468	0	Ⴞ	cut_g_stereo_44KHz.wav
0	30	2	3	1	C	1	0	417	0	Ⴞ	cut_eeuw_stereo_44KHz.wav
avg_resp = 531
1	1	4	4	2	I	0	0	0	0	Ⴇ	cut_k_stereo_44KHz.wav
1	2	3	3	2	I	2	0	517	0	Ⴁ	cut_o_stereo_44KHz.wav
1	3	2	2	1	C	1	0	453	0	Ⴂ	cut_a_stereo_44KHz.wav
1	4	1	1	1	C	2	1	636	1	Ⴟ	cut_u_stereo_44KHz.wav
1	5	3	4	2	I	2	0	285	1	Ⴁ	cut_k_stereo_44KHz.wav
1	6	4	3	2	I	2	0	438	1	Ⴇ	cut_o_stereo_44KHz.wav
1	7	1	2	0	C	1	1	367	1	Ⴟ	cut_a_stereo_44KHz.wav
1	8	2	1	0	C	1	1	389	1	Ⴂ	cut_u_stereo_44KHz.wav
1	9	3	4	2	I	1	0	528	1	Ⴁ	cut_k_stereo_44KHz.wav
1	10	1	1	1	C	1	0	729	0	Ⴟ	cut_u_stereo_44KHz.wav
1	11	4	3	2	I	2	0	484	1	Ⴇ	cut_o_stereo_44KHz.wav
1	12	2	2	1	C	2	1	321	1	Ⴂ	cut_a_stereo_44KHz.wav
1	13	1	2	0	C	2	0	481	0	Ⴟ	cut_a_stereo_44KHz.wav
1	14	3	3	2	I	1	0	557	1	Ⴁ	cut_o_stereo_44KHz.wav
1	15	4	4	2	I	1	0	461	1	Ⴇ	cut_k_stereo_44KHz.wav
1	16	2	1	0	C	1	1	533	1	Ⴂ	cut_u_stereo_44KHz.wav
1	17	3	4	2	I	1	0	326	1	Ⴁ	cut_k_stereo_44KHz.wav
1	18	2	1	0	C	2	0	869	0	Ⴂ	cut_u_stereo_44KHz.wav
1	19	1	2	0	C	1	1	339	1	Ⴟ	cut_a_stereo_44KHz.wav
1	20	4	3	2	I	1	0	396	1	Ⴇ	cut_o_stereo_44KHz.wav
1	21	3	3	2	I	1	0	534	1	Ⴁ	cut_o_stereo_44KHz.wav
1	22	2	2	1	C	2	1	760	1	Ⴂ	cut_a_stereo_44KHz.wav
1	23	1	1	1	C	1	0	495	0	Ⴟ	cut_u_stereo_44KHz.wav
1	24	4	4	2	I	2	0	450	1	Ⴇ	cut_k_stereo_44KHz.wav
1	25	2	1	0	C	2	0	557	0	Ⴂ	cut_u_stereo_44KHz.wav
1	26	4	3	2	I	0	0	0	0	Ⴇ	cut_o_stereo_44KHz.wav
1	27	3	4	2	I	1	0	338	0	Ⴁ	cut_k_stereo_44KHz.wav
1	28	1	2	0	C	2	0	265	0	Ⴟ	cut_a_stereo_44KHz.wav
1	29	2	2	1	C	1	0	265	0	Ⴂ	cut_a_stereo_44KHz.wav
1	30	3	3	2	I	2	0	260	1	Ⴁ	cut_o_stereo_44KHz.wav
1	31	1	1	1	C	1	0	690	0	Ⴟ	cut_u_stereo_44KHz.wav
1	32	4	4	2	I	2	0	565	0	Ⴇ	cut_k_stereo_44KHz.wav
1	33	2	1	0	C	1	1	193	1	Ⴂ	cut_u_stereo_44KHz.wav
1	34	3	3	2	I	1	0	321	1	Ⴁ	cut_o_stereo_44KHz.wav
1	35	1	2	0	C	1	1	309	1	Ⴟ	cut_a_stereo_44KHz.wav
1	36	4	4	2	I	1	0	480	1	Ⴇ	cut_k_stereo_44KHz.wav
1	37	3	4	2	I	2	0	280	0	Ⴁ	cut_k_stereo_44KHz.wav
1	38	4	3	2	I	1	0	492	0	Ⴇ	cut_o_stereo_44KHz.wav
1	39	2	2	1	C	2	1	264	1	Ⴂ	cut_a_stereo_44KHz.wav
1	40	1	1	1	C	2	1	292	1	Ⴟ	cut_u_stereo_44KHz.wav
1	41	2	1	0	C	2	0	330	0	Ⴂ	cut_u_stereo_44KHz.wav
1	42	3	4	2	I	1	0	347	0	Ⴁ	cut_k_stereo_44KHz.wav
1	43	1	2	0	C	2	0	257	0	Ⴟ	cut_a_stereo_44KHz.wav
1	44	4	4	2	I	1	0	172	0	Ⴇ	cut_k_stereo_44KHz.wav
1	45	1	1	1	C	1	0	669	0	Ⴟ	cut_u_stereo_44KHz.wav
1	46	4	3	2	I	2	0	265	0	Ⴇ	cut_o_stereo_44KHz.wav
1	47	2	2	1	C	1	0	1003	0	Ⴂ	cut_a_stereo_44KHz.wav
1	48	3	3	2	I	2	0	265	1	Ⴁ	cut_o_stereo_44KHz.wav
1	49	1	1	1	C	2	1	327	1	Ⴟ	cut_u_stereo_44KHz.wav
1	50	4	4	2	I	2	0	359	1	Ⴇ	cut_k_stereo_44KHz.wav
1	51	3	4	2	I	2	0	278	0	Ⴁ	cut_k_stereo_44KHz.wav
1	52	2	1	0	C	1	1	285	1	Ⴂ	cut_u_stereo_44KHz.wav
1	53	3	3	2	I	1	0	269	0	Ⴁ	cut_o_stereo_44KHz.wav
1	54	2	2	1	C	2	1	768	1	Ⴂ	cut_a_stereo_44KHz.wav
1	55	4	3	2	I	2	0	377	1	Ⴇ	cut_o_stereo_44KHz.wav
1	56	1	2	0	C	2	0	576	0	Ⴟ	cut_a_stereo_44KHz.wav
1	57	3	3	2	I	1	0	449	1	Ⴁ	cut_o_stereo_44KHz.wav
1	58	2	1	0	C	1	1	422	1	Ⴂ	cut_u_stereo_44KHz.wav
1	59	4	4	2	I	1	0	291	0	Ⴇ	cut_k_stereo_44KHz.wav
1	60	1	2	0	C	2	0	206	0	Ⴟ	cut_a_stereo_44KHz.wav
1	61	3	4	2	I	1	0	234	0	Ⴁ	cut_k_stereo_44KHz.wav
1	62	4	3	2	I	2	0	382	1	Ⴇ	cut_o_stereo_44KHz.wav
1	63	1	1	1	C	2	1	305	1	Ⴟ	cut_u_stereo_44KHz.wav
1	64	2	2	1	C	2	1	435	1	Ⴂ	cut_a_stereo_44KHz.wav
1	65	1	1	1	C	2	1	346	1	Ⴟ	cut_u_stereo_44KHz.wav
1	66	3	4	2	I	2	0	268	0	Ⴁ	cut_k_stereo_44KHz.wav
1	67	4	4	2	I	1	0	304	0	Ⴇ	cut_k_stereo_44KHz.wav
1	68	2	1	0	C	1	1	493	1	Ⴂ	cut_u_stereo_44KHz.wav
1	69	4	3	2	I	1	0	287	1	Ⴇ	cut_o_stereo_44KHz.wav
1	70	3	3	2	I	1	0	356	0	Ⴁ	cut_o_stereo_44KHz.wav
1	71	2	2	1	C	2	1	316	1	Ⴂ	cut_a_stereo_44KHz.wav
1	72	1	2	0	C	1	1	349	1	Ⴟ	cut_a_stereo_44KHz.wav
1	73	2	2	1	C	2	1	397	1	Ⴂ	cut_a_stereo_44KHz.wav
1	74	3	3	2	I	1	0	760	0	Ⴁ	cut_o_stereo_44KHz.wav
1	75	4	3	2	I	1	0	354	1	Ⴇ	cut_o_stereo_44KHz.wav
1	76	1	1	1	C	2	1	422	1	Ⴟ	cut_u_stereo_44KHz.wav
1	77	4	4	2	I	2	0	329	0	Ⴇ	cut_k_stereo_44KHz.wav
1	78	1	2	0	C	1	1	263	1	Ⴟ	cut_a_stereo_44KHz.wav
1	79	2	1	0	C	1	1	299	1	Ⴂ	cut_u_stereo_44KHz.wav
1	80	3	4	2	I	1	0	409	1	Ⴁ	cut_k_stereo_44KHz.wav
1	81	4	3	2	I	1	0	264	0	Ⴇ	cut_o_stereo_44KHz.wav
1	82	1	2	0	C	2	0	223	0	Ⴟ	cut_a_stereo_44KHz.wav
1	83	2	1	0	C	2	0	454	0	Ⴂ	cut_u_stereo_44KHz.wav
1	84	3	4	2	I	1	0	381	0	Ⴁ	cut_k_stereo_44KHz.wav
1	85	2	2	1	C	2	1	287	1	Ⴂ	cut_a_stereo_44KHz.wav
1	86	1	1	1	C	2	1	203	1	Ⴟ	cut_u_stereo_44KHz.wav
1	87	3	3	2	I	2	0	521	1	Ⴁ	cut_o_stereo_44KHz.wav
1	88	4	4	2	I	1	0	413	0	Ⴇ	cut_k_stereo_44KHz.wav
1	89	2	1	0	C	2	0	232	0	Ⴂ	cut_u_stereo_44KHz.wav
1	90	4	3	2	I	1	0	227	1	Ⴇ	cut_o_stereo_44KHz.wav
1	91	1	2	0	C	1	1	316	1	Ⴟ	cut_a_stereo_44KHz.wav
1	92	3	3	2	I	1	0	423	1	Ⴁ	cut_o_stereo_44KHz.wav
1	93	4	4	2	I	1	0	384	0	Ⴇ	cut_k_stereo_44KHz.wav
1	94	2	2	1	C	2	1	362	1	Ⴂ	cut_a_stereo_44KHz.wav
1	95	3	4	2	I	2	0	233	1	Ⴁ	cut_k_stereo_44KHz.wav
1	96	1	1	1	C	1	0	299	0	Ⴟ	cut_u_stereo_44KHz.wav
1	97	4	4	2	I	2	0	288	1	Ⴇ	cut_k_stereo_44KHz.wav
1	98	2	1	0	C	2	0	364	0	Ⴂ	cut_u_stereo_44KHz.wav
1	99	3	3	2	I	2	0	322	0	Ⴁ	cut_o_stereo_44KHz.wav
1	100	1	2	0	C	1	1	263	1	Ⴟ	cut_a_stereo_44KHz.wav
1	101	3	4	2	I	1	0	276	1	Ⴁ	cut_k_stereo_44KHz.wav
1	102	4	3	2	I	1	0	221	0	Ⴇ	cut_o_stereo_44KHz.wav
1	103	2	2	1	C	1	0	506	0	Ⴂ	cut_a_stereo_44KHz.wav
1	104	1	1	1	C	1	0	189	0	Ⴟ	cut_u_stereo_44KHz.wav
1	105	3	3	2	I	2	0	194	1	Ⴁ	cut_o_stereo_44KHz.wav
1	106	1	2	0	C	1	1	356	1	Ⴟ	cut_a_stereo_44KHz.wav
1	107	2	1	0	C	1	1	560	1	Ⴂ	cut_u_stereo_44KHz.wav
1	108	4	4	2	I	1	0	667	1	Ⴇ	cut_k_stereo_44KHz.wav
1	109	1	1	1	C	1	0	258	0	Ⴟ	cut_u_stereo_44KHz.wav
1	110	4	3	2	I	2	0	256	0	Ⴇ	cut_o_stereo_44KHz.wav
1	111	2	2	1	C	1	0	1805	0	Ⴂ	cut_a_stereo_44KHz.wav
1	112	3	4	2	I	2	0	493	1	Ⴁ	cut_k_stereo_44KHz.wav
1	113	1	1	1	C	1	0	715	0	Ⴟ	cut_u_stereo_44KHz.wav
1	114	2	2	1	C	2	1	175	1	Ⴂ	cut_a_stereo_44KHz.wav
1	115	4	4	2	I	1	0	273	0	Ⴇ	cut_k_stereo_44KHz.wav
1	116	3	4	2	I	2	0	469	0	Ⴁ	cut_k_stereo_44KHz.wav
1	117	4	3	2	I	1	0	231	0	Ⴇ	cut_o_stereo_44KHz.wav
1	118	2	1	0	C	2	0	102	0	Ⴂ	cut_u_stereo_44KHz.wav
1	119	1	2	0	C	1	1	312	1	Ⴟ	cut_a_stereo_44KHz.wav
1	120	3	3	2	I	1	0	193	1	Ⴁ	cut_o_stereo_44KHz.wav
1	121	1	2	0	C	2	0	475	0	Ⴟ	cut_a_stereo_44KHz.wav
1	122	2	1	0	C	1	1	362	1	Ⴂ	cut_u_stereo_44KHz.wav
1	123	3	4	2	I	1	0	304	1	Ⴁ	cut_k_stereo_44KHz.wav
1	124	4	4	2	I	2	0	269	1	Ⴇ	cut_k_stereo_44KHz.wav
1	125	2	2	1	C	2	1	234	1	Ⴂ	cut_a_stereo_44KHz.wav
1	126	4	3	2	I	2	0	387	0	Ⴇ	cut_o_stereo_44KHz.wav
1	127	3	3	2	I	1	0	412	0	Ⴁ	cut_o_stereo_44KHz.wav
1	128	1	1	1	C	2	1	903	1	Ⴟ	cut_u_stereo_44KHz.wav
1	129	3	3	2	I	2	0	332	1	Ⴁ	cut_o_stereo_44KHz.wav
1	130	4	4	2	I	1	0	212	0	Ⴇ	cut_k_stereo_44KHz.wav
1	131	2	2	1	C	2	1	302	1	Ⴂ	cut_a_stereo_44KHz.wav
1	132	1	1	1	C	2	1	1605	1	Ⴟ	cut_u_stereo_44KHz.wav
1	133	4	3	2	I	2	0	279	1	Ⴇ	cut_o_stereo_44KHz.wav
1	134	3	4	2	I	2	0	523	0	Ⴁ	cut_k_stereo_44KHz.wav
1	135	1	2	0	C	1	1	304	1	Ⴟ	cut_a_stereo_44KHz.wav
1	136	2	1	0	C	1	1	740	1	Ⴂ	cut_u_stereo_44KHz.wav
1	137	3	4	2	I	1	0	359	1	Ⴁ	cut_k_stereo_44KHz.wav
1	138	1	1	1	C	1	0	896	0	Ⴟ	cut_u_stereo_44KHz.wav
1	139	4	4	2	I	2	0	250	0	Ⴇ	cut_k_stereo_44KHz.wav
1	140	2	1	0	C	1	1	504	1	Ⴂ	cut_u_stereo_44KHz.wav
1	141	1	2	0	C	2	0	287	0	Ⴟ	cut_a_stereo_44KHz.wav
1	142	4	3	2	I	1	0	226	0	Ⴇ	cut_o_stereo_44KHz.wav
1	143	2	2	1	C	2	1	345	1	Ⴂ	cut_a_stereo_44KHz.wav
1	144	3	3	2	I	2	0	853	1	Ⴁ	cut_o_stereo_44KHz.wav
1	145	2	1	0	C	2	0	537	0	Ⴂ	cut_u_stereo_44KHz.wav
1	146	4	3	2	I	1	0	261	1	Ⴇ	cut_o_stereo_44KHz.wav
1	147	1	2	0	C	1	1	298	1	Ⴟ	cut_a_stereo_44KHz.wav
1	148	3	4	2	I	1	0	145	0	Ⴁ	cut_k_stereo_44KHz.wav
1	149	1	1	1	C	2	1	267	1	Ⴟ	cut_u_stereo_44KHz.wav
1	150	4	4	2	I	2	0	428	0	Ⴇ	cut_k_stereo_44KHz.wav
1	151	3	3	2	I	1	0	265	1	Ⴁ	cut_o_stereo_44KHz.wav
1	152	2	2	1	C	2	1	312	1	Ⴂ	cut_a_stereo_44KHz.wav
1	153	1	2	0	C	1	1	320	1	Ⴟ	cut_a_stereo_44KHz.wav
1	154	4	3	2	I	1	0	320	1	Ⴇ	cut_o_stereo_44KHz.wav
1	155	3	4	2	I	2	0	320	1	Ⴁ	cut_k_stereo_44KHz.wav
1	156	2	2	1	C	1	0	590	0	Ⴂ	cut_a_stereo_44KHz.wav
1	157	1	1	1	C	2	1	329	1	Ⴟ	cut_u_stereo_44KHz.wav
1	158	3	3	2	I	2	0	221	0	Ⴁ	cut_o_stereo_44KHz.wav
1	159	4	4	2	I	0	0	0	0	Ⴇ	cut_k_stereo_44KHz.wav
1	160	2	1	0	C	1	1	134	1	Ⴂ	cut_u_stereo_44KHz.wav
1	161	1	1	1	C	1	0	310	0	Ⴟ	cut_u_stereo_44KHz.wav
1	162	3	3	2	I	2	0	439	1	Ⴁ	cut_o_stereo_44KHz.wav
1	163	2	2	1	C	2	1	175	1	Ⴂ	cut_a_stereo_44KHz.wav
1	164	4	3	2	I	1	0	268	1	Ⴇ	cut_o_stereo_44KHz.wav
1	165	1	2	0	C	1	1	279	1	Ⴟ	cut_a_stereo_44KHz.wav
1	166	4	4	2	I	2	0	584	1	Ⴇ	cut_k_stereo_44KHz.wav
1	167	2	1	0	C	2	0	555	0	Ⴂ	cut_u_stereo_44KHz.wav
1	168	3	4	2	I	1	0	108	0	Ⴁ	cut_k_stereo_44KHz.wav
1	169	2	1	0	C	2	0	224	0	Ⴂ	cut_u_stereo_44KHz.wav
1	170	3	3	2	I	1	0	736	0	Ⴁ	cut_o_stereo_44KHz.wav
1	171	4	4	2	I	2	0	718	1	Ⴇ	cut_k_stereo_44KHz.wav
1	172	1	1	1	C	2	1	741	1	Ⴟ	cut_u_stereo_44KHz.wav
1	173	2	2	1	C	2	1	300	1	Ⴂ	cut_a_stereo_44KHz.wav
1	174	4	3	2	I	2	0	559	1	Ⴇ	cut_o_stereo_44KHz.wav
1	175	3	4	2	I	2	0	1436	0	Ⴁ	cut_k_stereo_44KHz.wav
1	176	1	2	0	C	1	1	411	1	Ⴟ	cut_a_stereo_44KHz.wav
1	177	2	2	1	C	1	0	54	0	Ⴂ	cut_a_stereo_44KHz.wav
1	178	1	1	1	C	2	1	16	1	Ⴟ	cut_u_stereo_44KHz.wav
1	179	4	4	2	I	1	0	560	0	Ⴇ	cut_k_stereo_44KHz.wav
1	180	3	3	2	I	2	0	320	0	Ⴁ	cut_o_stereo_44KHz.wav
1	181	1	2	0	C	1	1	598	1	Ⴟ	cut_a_stereo_44KHz.wav
1	182	3	4	2	I	1	0	367	0	Ⴁ	cut_k_stereo_44KHz.wav
1	183	4	3	2	I	2	0	551	0	Ⴇ	cut_o_stereo_44KHz.wav
1	184	2	1	0	C	1	1	290	1	Ⴂ	cut_u_stereo_44KHz.wav
1	185	3	4	2	I	1	0	278	0	Ⴁ	cut_k_stereo_44KHz.wav
1	186	1	2	0	C	2	0	236	0	Ⴟ	cut_a_stereo_44KHz.wav
1	187	4	3	2	I	1	0	58	1	Ⴇ	cut_o_stereo_44KHz.wav
1	188	2	1	0	C	1	1	346	1	Ⴂ	cut_u_stereo_44KHz.wav
1	189	4	4	2	I	1	0	302	0	Ⴇ	cut_k_stereo_44KHz.wav
1	190	3	3	2	I	2	0	242	1	Ⴁ	cut_o_stereo_44KHz.wav
1	191	1	1	1	C	2	1	225	1	Ⴟ	cut_u_stereo_44KHz.wav
1	192	2	2	1	C	1	0	564	0	Ⴂ	cut_a_stereo_44KHz.wav
1	193	4	4	2	I	1	0	376	0	Ⴇ	cut_k_stereo_44KHz.wav
1	194	1	2	0	C	2	0	507	0	Ⴟ	cut_a_stereo_44KHz.wav
1	195	2	1	0	C	1	1	1297	1	Ⴂ	cut_u_stereo_44KHz.wav
1	196	3	4	2	I	1	0	202	0	Ⴁ	cut_k_stereo_44KHz.wav
1	197	2	2	1	C	2	1	848	1	Ⴂ	cut_a_stereo_44KHz.wav
1	198	1	1	1	C	2	1	217	1	Ⴟ	cut_u_stereo_44KHz.wav
1	199	3	3	2	I	2	0	349	0	Ⴁ	cut_o_stereo_44KHz.wav
1	200	4	3	2	I	1	0	248	1	Ⴇ	cut_o_stereo_44KHz.wav
2	1	1	2	0	C	1	1	1613	1	Ⴕ	cut_s_stereo_44KHz.wav
2	2	3	4	2	I	1	0	469	1	Ⴔ	cut_ui_stereo_44KHz.wav
2	3	4	4	2	I	1	0	418	0	Ⴒ	cut_ui_stereo_44KHz.wav
2	4	2	1	0	C	2	0	492	0	Ⴏ	cut_f_stereo_44KHz.wav
2	5	3	3	2	I	1	0	684	0	Ⴔ	cut_r_stereo_44KHz.wav
2	6	2	2	1	C	1	0	212	0	Ⴏ	cut_s_stereo_44KHz.wav
2	7	1	1	1	C	2	1	137	1	Ⴕ	cut_f_stereo_44KHz.wav
2	8	4	3	2	I	2	0	364	0	Ⴒ	cut_r_stereo_44KHz.wav
2	9	1	2	0	C	1	1	812	1	Ⴕ	cut_s_stereo_44KHz.wav
2	10	4	3	2	I	1	0	233	0	Ⴒ	cut_r_stereo_44KHz.wav
2	11	2	1	0	C	1	1	895	1	Ⴏ	cut_f_stereo_44KHz.wav
2	12	3	3	2	I	1	0	248	0	Ⴔ	cut_r_stereo_44KHz.wav
2	13	4	4	2	I	1	0	203	1	Ⴒ	cut_ui_stereo_44KHz.wav
2	14	1	1	1	C	1	0	810	0	Ⴕ	cut_f_stereo_44KHz.wav
2	15	3	4	2	I	2	0	285	1	Ⴔ	cut_ui_stereo_44KHz.wav
2	16	2	2	1	C	2	1	202	1	Ⴏ	cut_s_stereo_44KHz.wav
2	17	1	2	0	C	2	0	220	0	Ⴕ	cut_s_stereo_44KHz.wav
2	18	2	2	1	C	1	0	182	0	Ⴏ	cut_s_stereo_44KHz.wav
2	19	4	3	2	I	1	0	1070	1	Ⴒ	cut_r_stereo_44KHz.wav
2	20	3	3	2	I	2	0	475	0	Ⴔ	cut_r_stereo_44KHz.wav
2	21	2	1	0	C	2	0	482	0	Ⴏ	cut_f_stereo_44KHz.wav
2	22	4	4	2	I	1	0	298	1	Ⴒ	cut_ui_stereo_44KHz.wav
2	23	1	1	1	C	2	1	298	1	Ⴕ	cut_f_stereo_44KHz.wav
2	24	3	4	2	I	1	0	521	0	Ⴔ	cut_ui_stereo_44KHz.wav
2	25	4	4	2	I	2	0	212	0	Ⴒ	cut_ui_stereo_44KHz.wav
2	26	1	2	0	C	1	1	1109	1	Ⴕ	cut_s_stereo_44KHz.wav
2	27	3	3	2	I	1	0	327	1	Ⴔ	cut_r_stereo_44KHz.wav
2	28	2	2	1	C	1	0	395	0	Ⴏ	cut_s_stereo_44KHz.wav
2	29	1	1	1	C	1	0	175	0	Ⴕ	cut_f_stereo_44KHz.wav
2	30	3	4	2	I	2	0	248	1	Ⴔ	cut_ui_stereo_44KHz.wav
2	31	4	3	2	I	1	0	591	1	Ⴒ	cut_r_stereo_44KHz.wav
2	32	2	1	0	C	1	1	392	1	Ⴏ	cut_f_stereo_44KHz.wav
2	33	3	3	2	I	2	0	252	1	Ⴔ	cut_r_stereo_44KHz.wav
2	34	4	3	2	I	1	0	222	0	Ⴒ	cut_r_stereo_44KHz.wav
2	35	1	1	1	C	2	1	645	1	Ⴕ	cut_f_stereo_44KHz.wav
2	36	2	2	1	C	2	1	433	1	Ⴏ	cut_s_stereo_44KHz.wav
2	37	1	2	0	C	1	1	236	1	Ⴕ	cut_s_stereo_44KHz.wav
2	38	2	1	0	C	2	0	552	0	Ⴏ	cut_f_stereo_44KHz.wav
2	39	3	4	2	I	1	0	644	1	Ⴔ	cut_ui_stereo_44KHz.wav
2	40	4	4	2	I	1	0	254	1	Ⴒ	cut_ui_stereo_44KHz.wav
2	41	1	2	0	C	1	1	549	1	Ⴕ	cut_s_stereo_44KHz.wav
2	42	2	2	1	C	1	0	259	0	Ⴏ	cut_s_stereo_44KHz.wav
2	43	3	3	2	I	2	0	509	0	Ⴔ	cut_r_stereo_44KHz.wav
2	44	4	4	2	I	1	0	551	1	Ⴒ	cut_ui_stereo_44KHz.wav
2	45	2	1	0	C	1	1	357	1	Ⴏ	cut_f_stereo_44KHz.wav
2	46	1	1	1	C	1	0	656	0	Ⴕ	cut_f_stereo_44KHz.wav
2	47	3	4	2	I	2	0	279	0	Ⴔ	cut_ui_stereo_44KHz.wav
2	48	4	3	2	I	1	0	449	1	Ⴒ	cut_r_stereo_44KHz.wav
2	49	3	3	2	I	1	0	237	1	Ⴔ	cut_r_stereo_44KHz.wav
2	50	2	2	1	C	1	0	278	0	Ⴏ	cut_s_stereo_44KHz.wav
2	51	4	4	2	I	2	0	364	0	Ⴒ	cut_ui_stereo_44KHz.wav
2	52	1	1	1	C	1	0	790	0	Ⴕ	cut_f_stereo_44KHz.wav
2	53	2	1	0	C	2	0	318	0	Ⴏ	cut_f_stereo_44KHz.wav
2	54	4	3	2	I	1	0	670	1	Ⴒ	cut_r_stereo_44KHz.wav
2	55	1	2	0	C	1	1	322	1	Ⴕ	cut_s_stereo_44KHz.wav
2	56	3	4	2	I	1	0	318	0	Ⴔ	cut_ui_stereo_44KHz.wav
2	57	2	1	0	C	2	0	139	0	Ⴏ	cut_f_stereo_44KHz.wav
2	58	1	1	1	C	1	0	31	0	Ⴕ	cut_f_stereo_44KHz.wav
2	59	4	3	2	I	1	0	553	0	Ⴒ	cut_r_stereo_44KHz.wav
2	60	3	4	2	I	2	0	302	1	Ⴔ	cut_ui_stereo_44KHz.wav
2	61	2	2	1	C	2	1	241	1	Ⴏ	cut_s_stereo_44KHz.wav
2	62	3	3	2	I	2	0	1027	0	Ⴔ	cut_r_stereo_44KHz.wav
2	63	1	2	0	C	1	1	379	1	Ⴕ	cut_s_stereo_44KHz.wav
2	64	4	4	2	I	1	0	299	1	Ⴒ	cut_ui_stereo_44KHz.wav
2	65	2	1	0	C	2	0	267	0	Ⴏ	cut_f_stereo_44KHz.wav
2	66	4	4	2	I	1	0	256	1	Ⴒ	cut_ui_stereo_44KHz.wav
2	67	3	3	2	I	1	0	315	0	Ⴔ	cut_r_stereo_44KHz.wav
2	68	1	1	1	C	1	0	303	0	Ⴕ	cut_f_stereo_44KHz.wav
2	69	4	3	2	I	1	0	290	0	Ⴒ	cut_r_stereo_44KHz.wav
2	70	1	2	0	C	2	0	348	0	Ⴕ	cut_s_stereo_44KHz.wav
2	71	3	4	2	I	1	0	491	0	Ⴔ	cut_ui_stereo_44KHz.wav
2	72	2	2	1	C	1	0	435	0	Ⴏ	cut_s_stereo_44KHz.wav
2	73	4	4	2	I	2	0	240	0	Ⴒ	cut_ui_stereo_44KHz.wav
2	74	1	2	0	C	1	1	203	1	Ⴕ	cut_s_stereo_44KHz.wav
2	75	2	2	1	C	2	1	542	1	Ⴏ	cut_s_stereo_44KHz.wav
2	76	3	3	2	I	1	0	369	1	Ⴔ	cut_r_stereo_44KHz.wav
2	77	4	3	2	I	1	0	701	1	Ⴒ	cut_r_stereo_44KHz.wav
2	78	3	4	2	I	2	0	478	1	Ⴔ	cut_ui_stereo_44KHz.wav
2	79	2	1	0	C	2	0	403	0	Ⴏ	cut_f_stereo_44KHz.wav
2	80	1	1	1	C	1	0	308	0	Ⴕ	cut_f_stereo_44KHz.wav
2	81	2	2	1	C	1	0	410	0	Ⴏ	cut_s_stereo_44KHz.wav
2	82	4	3	2	I	2	0	226	1	Ⴒ	cut_r_stereo_44KHz.wav
2	83	1	2	0	C	1	1	445	1	Ⴕ	cut_s_stereo_44KHz.wav
2	84	3	4	2	I	1	0	332	1	Ⴔ	cut_ui_stereo_44KHz.wav
2	85	1	1	1	C	1	0	320	0	Ⴕ	cut_f_stereo_44KHz.wav
2	86	3	3	2	I	2	0	864	0	Ⴔ	cut_r_stereo_44KHz.wav
2	87	2	1	0	C	1	1	342	1	Ⴏ	cut_f_stereo_44KHz.wav
2	88	4	4	2	I	1	0	304	0	Ⴒ	cut_ui_stereo_44KHz.wav
2	89	3	3	2	I	2	0	354	1	Ⴔ	cut_r_stereo_44KHz.wav
2	90	4	4	2	I	2	0	231	0	Ⴒ	cut_ui_stereo_44KHz.wav
2	91	2	1	0	C	1	1	304	1	Ⴏ	cut_f_stereo_44KHz.wav
2	92	1	2	0	C	2	0	273	0	Ⴕ	cut_s_stereo_44KHz.wav
2	93	3	4	2	I	1	0	295	1	Ⴔ	cut_ui_stereo_44KHz.wav
2	94	4	3	2	I	1	0	592	0	Ⴒ	cut_r_stereo_44KHz.wav
2	95	1	1	1	C	2	1	200	1	Ⴕ	cut_f_stereo_44KHz.wav
2	96	2	2	1	C	1	0	380	0	Ⴏ	cut_s_stereo_44KHz.wav
2	97	3	4	2	I	1	0	493	1	Ⴔ	cut_ui_stereo_44KHz.wav
2	98	1	2	0	C	1	1	231	1	Ⴕ	cut_s_stereo_44KHz.wav
2	99	2	1	0	C	1	1	233	1	Ⴏ	cut_f_stereo_44KHz.wav
2	100	4	4	2	I	1	0	276	0	Ⴒ	cut_ui_stereo_44KHz.wav
2	101	3	3	2	I	2	0	289	1	Ⴔ	cut_r_stereo_44KHz.wav
2	102	2	2	1	C	1	0	371	0	Ⴏ	cut_s_stereo_44KHz.wav
2	103	4	3	2	I	2	0	55	0	Ⴒ	cut_r_stereo_44KHz.wav
2	104	1	1	1	C	1	0	336	0	Ⴕ	cut_f_stereo_44KHz.wav
2	105	3	3	2	I	1	0	322	0	Ⴔ	cut_r_stereo_44KHz.wav
2	106	1	1	1	C	1	0	333	0	Ⴕ	cut_f_stereo_44KHz.wav
2	107	2	2	1	C	2	1	251	1	Ⴏ	cut_s_stereo_44KHz.wav
2	108	4	3	2	I	2	0	281	1	Ⴒ	cut_r_stereo_44KHz.wav
2	109	2	1	0	C	2	0	476	0	Ⴏ	cut_f_stereo_44KHz.wav
2	110	3	4	2	I	1	0	309	0	Ⴔ	cut_ui_stereo_44KHz.wav
2	111	1	2	0	C	0	0	0	0	Ⴕ	cut_s_stereo_44KHz.wav
2	112	4	4	2	I	2	0	324	0	Ⴒ	cut_ui_stereo_44KHz.wav
2	113	3	3	2	I	1	0	97	1	Ⴔ	cut_r_stereo_44KHz.wav
2	114	4	3	2	I	1	0	410	1	Ⴒ	cut_r_stereo_44KHz.wav
2	115	2	2	1	C	1	0	307	0	Ⴏ	cut_s_stereo_44KHz.wav
2	116	1	1	1	C	2	1	198	1	Ⴕ	cut_f_stereo_44KHz.wav
2	117	4	4	2	I	2	0	383	1	Ⴒ	cut_ui_stereo_44KHz.wav
2	118	1	2	0	C	1	1	593	1	Ⴕ	cut_s_stereo_44KHz.wav
2	119	2	1	0	C	1	1	408	1	Ⴏ	cut_f_stereo_44KHz.wav
2	120	3	4	2	I	1	0	1345	0	Ⴔ	cut_ui_stereo_44KHz.wav
2	121	4	4	2	I	2	0	271	0	Ⴒ	cut_ui_stereo_44KHz.wav
2	122	1	2	0	C	1	1	294	1	Ⴕ	cut_s_stereo_44KHz.wav
2	123	2	1	0	C	1	1	667	1	Ⴏ	cut_f_stereo_44KHz.wav
2	124	3	4	2	I	2	0	421	0	Ⴔ	cut_ui_stereo_44KHz.wav
2	125	4	3	2	I	0	0	0	0	Ⴒ	cut_r_stereo_44KHz.wav
2	126	2	2	1	C	1	0	293	0	Ⴏ	cut_s_stereo_44KHz.wav
2	127	1	1	1	C	2	1	204	1	Ⴕ	cut_f_stereo_44KHz.wav
2	128	3	3	2	I	1	0	303	0	Ⴔ	cut_r_stereo_44KHz.wav
2	129	4	4	2	I	2	0	190	1	Ⴒ	cut_ui_stereo_44KHz.wav
2	130	2	1	0	C	2	0	268	0	Ⴏ	cut_f_stereo_44KHz.wav
2	131	3	4	2	I	0	0	0	0	Ⴔ	cut_ui_stereo_44KHz.wav
2	132	1	1	1	C	1	0	424	0	Ⴕ	cut_f_stereo_44KHz.wav
2	133	3	3	2	I	2	0	261	0	Ⴔ	cut_r_stereo_44KHz.wav
2	134	2	2	1	C	0	0	0	0	Ⴏ	cut_s_stereo_44KHz.wav
2	135	4	3	2	I	1	0	285	0	Ⴒ	cut_r_stereo_44KHz.wav
2	136	1	2	0	C	2	0	915	0	Ⴕ	cut_s_stereo_44KHz.wav
2	137	2	2	1	C	1	0	369	0	Ⴏ	cut_s_stereo_44KHz.wav
2	138	4	3	2	I	1	0	77	0	Ⴒ	cut_r_stereo_44KHz.wav
2	139	1	2	0	C	2	0	146	0	Ⴕ	cut_s_stereo_44KHz.wav
2	140	3	4	2	I	1	0	239	0	Ⴔ	cut_ui_stereo_44KHz.wav
2	141	1	1	1	C	2	1	56	1	Ⴕ	cut_f_stereo_44KHz.wav
2	142	3	3	2	I	2	0	189	1	Ⴔ	cut_r_stereo_44KHz.wav
2	143	4	4	2	I	2	0	368	1	Ⴒ	cut_ui_stereo_44KHz.wav
2	144	2	1	0	C	2	0	217	0	Ⴏ	cut_f_stereo_44KHz.wav
2	145	4	4	2	I	1	0	20	1	Ⴒ	cut_ui_stereo_44KHz.wav
2	146	2	2	1	C	1	0	264	0	Ⴏ	cut_s_stereo_44KHz.wav
2	147	1	2	0	C	1	1	258	1	Ⴕ	cut_s_stereo_44KHz.wav
2	148	3	4	2	I	1	0	265	1	Ⴔ	cut_ui_stereo_44KHz.wav
2	149	2	1	0	C	2	0	239	0	Ⴏ	cut_f_stereo_44KHz.wav
2	150	4	3	2	I	1	0	233	0	Ⴒ	cut_r_stereo_44KHz.wav
2	151	1	1	1	C	2	1	832	1	Ⴕ	cut_f_stereo_44KHz.wav
2	152	3	3	2	I	2	0	310	1	Ⴔ	cut_r_stereo_44KHz.wav
2	153	1	1	1	C	2	1	56	1	Ⴕ	cut_f_stereo_44KHz.wav
2	154	4	4	2	I	2	0	1357	0	Ⴒ	cut_ui_stereo_44KHz.wav
2	155	2	2	1	C	1	0	171	0	Ⴏ	cut_s_stereo_44KHz.wav
2	156	3	3	2	I	2	0	645	0	Ⴔ	cut_r_stereo_44KHz.wav
2	157	1	2	0	C	1	1	197	1	Ⴕ	cut_s_stereo_44KHz.wav
2	158	2	1	0	C	1	1	222	1	Ⴏ	cut_f_stereo_44KHz.wav
2	159	4	3	2	I	1	0	267	0	Ⴒ	cut_r_stereo_44KHz.wav
2	160	3	4	2	I	2	0	94	0	Ⴔ	cut_ui_stereo_44KHz.wav
2	161	4	4	2	I	1	0	557	1	Ⴒ	cut_ui_stereo_44KHz.wav
2	162	1	2	0	C	1	1	511	1	Ⴕ	cut_s_stereo_44KHz.wav
2	163	2	1	0	C	1	1	659	1	Ⴏ	cut_f_stereo_44KHz.wav
2	164	3	4	2	I	1	0	265	0	Ⴔ	cut_ui_stereo_44KHz.wav
2	165	2	2	1	C	2	1	282	1	Ⴏ	cut_s_stereo_44KHz.wav
2	166	4	3	2	I	2	0	317	1	Ⴒ	cut_r_stereo_44KHz.wav
2	167	3	3	2	I	2	0	296	1	Ⴔ	cut_r_stereo_44KHz.wav
2	168	1	1	1	C	2	1	513	1	Ⴕ	cut_f_stereo_44KHz.wav
2	169	4	4	2	I	1	0	318	0	Ⴒ	cut_ui_stereo_44KHz.wav
2	170	1	2	0	C	2	0	358	0	Ⴕ	cut_s_stereo_44KHz.wav
2	171	2	2	1	C	0	0	0	0	Ⴏ	cut_s_stereo_44KHz.wav
2	172	3	3	2	I	2	0	241	1	Ⴔ	cut_r_stereo_44KHz.wav
2	173	1	1	1	C	2	1	204	1	Ⴕ	cut_f_stereo_44KHz.wav
2	174	4	3	2	I	2	0	286	0	Ⴒ	cut_r_stereo_44KHz.wav
2	175	3	4	2	I	1	0	256	1	Ⴔ	cut_ui_stereo_44KHz.wav
2	176	2	1	0	C	1	1	403	1	Ⴏ	cut_f_stereo_44KHz.wav
2	177	1	1	1	C	1	0	170	0	Ⴕ	cut_f_stereo_44KHz.wav
2	178	4	4	2	I	2	0	283	1	Ⴒ	cut_ui_stereo_44KHz.wav
2	179	2	2	1	C	2	1	261	1	Ⴏ	cut_s_stereo_44KHz.wav
2	180	3	3	2	I	1	0	403	1	Ⴔ	cut_r_stereo_44KHz.wav
2	181	2	1	0	C	1	1	227	1	Ⴏ	cut_f_stereo_44KHz.wav
2	182	1	2	0	C	1	1	224	1	Ⴕ	cut_s_stereo_44KHz.wav
2	183	4	3	2	I	1	0	65	1	Ⴒ	cut_r_stereo_44KHz.wav
2	184	3	4	2	I	1	0	253	1	Ⴔ	cut_ui_stereo_44KHz.wav
2	185	1	2	0	C	1	1	140	1	Ⴕ	cut_s_stereo_44KHz.wav
2	186	2	1	0	C	1	1	277	1	Ⴏ	cut_f_stereo_44KHz.wav
2	187	4	4	2	I	1	0	234	1	Ⴒ	cut_ui_stereo_44KHz.wav
2	188	3	4	2	I	2	0	233	0	Ⴔ	cut_ui_stereo_44KHz.wav
2	189	4	3	2	I	1	0	332	0	Ⴒ	cut_r_stereo_44KHz.wav
2	190	1	1	1	C	2	1	206	1	Ⴕ	cut_f_stereo_44KHz.wav
2	191	2	2	1	C	2	1	227	1	Ⴏ	cut_s_stereo_44KHz.wav
2	192	3	3	2	I	2	0	321	0	Ⴔ	cut_r_stereo_44KHz.wav
2	193	1	1	1	C	1	0	191	0	Ⴕ	cut_f_stereo_44KHz.wav
2	194	4	4	2	I	2	0	290	0	Ⴒ	cut_ui_stereo_44KHz.wav
2	195	2	2	1	C	1	0	315	0	Ⴏ	cut_s_stereo_44KHz.wav
2	196	3	4	2	I	2	0	2	0	Ⴔ	cut_ui_stereo_44KHz.wav
2	197	1	2	0	C	1	1	165	1	Ⴕ	cut_s_stereo_44KHz.wav
2	198	2	1	0	C	1	1	385	1	Ⴏ	cut_f_stereo_44KHz.wav
2	199	3	3	2	I	1	0	242	0	Ⴔ	cut_r_stereo_44KHz.wav
2	200	4	3	2	I	2	0	1904	1	Ⴒ	cut_r_stereo_44KHz.wav
3	1	1	2	0	C	2	0	1306	0	Ⴐ	cut_ei_stereo_44KHz.wav
3	2	4	3	2	I	1	0	31	0	Ⴉ	cut_n_stereo_44KHz.wav
3	3	2	1	0	C	2	0	207	0	Ⴌ	cut_oei_stereo_44KHz.wav
3	4	3	3	2	I	1	0	93	0	Ⴖ	cut_n_stereo_44KHz.wav
3	5	4	4	2	I	2	0	361	1	Ⴉ	cut_j_stereo_44KHz.wav
3	6	2	2	1	C	2	1	323	1	Ⴌ	cut_ei_stereo_44KHz.wav
3	7	3	4	2	I	2	0	270	0	Ⴖ	cut_j_stereo_44KHz.wav
3	8	1	1	1	C	1	0	282	0	Ⴐ	cut_oei_stereo_44KHz.wav
3	9	2	1	0	C	1	1	421	1	Ⴌ	cut_oei_stereo_44KHz.wav
3	10	4	3	2	I	2	0	315	0	Ⴉ	cut_n_stereo_44KHz.wav
3	11	1	1	1	C	1	0	564	0	Ⴐ	cut_oei_stereo_44KHz.wav
3	12	3	4	2	I	1	0	181	0	Ⴖ	cut_j_stereo_44KHz.wav
3	13	1	2	0	C	2	0	320	0	Ⴐ	cut_ei_stereo_44KHz.wav
3	14	4	4	2	I	1	0	414	1	Ⴉ	cut_j_stereo_44KHz.wav
3	15	2	2	1	C	1	0	363	0	Ⴌ	cut_ei_stereo_44KHz.wav
3	16	3	3	2	I	2	0	303	1	Ⴖ	cut_n_stereo_44KHz.wav
3	17	2	1	0	C	2	0	484	0	Ⴌ	cut_oei_stereo_44KHz.wav
3	18	1	2	0	C	1	1	104	1	Ⴐ	cut_ei_stereo_44KHz.wav
3	19	3	3	2	I	1	0	368	0	Ⴖ	cut_n_stereo_44KHz.wav
3	20	4	4	2	I	2	0	322	0	Ⴉ	cut_j_stereo_44KHz.wav
3	21	1	1	1	C	1	0	275	0	Ⴐ	cut_oei_stereo_44KHz.wav
3	22	2	2	1	C	2	1	812	1	Ⴌ	cut_ei_stereo_44KHz.wav
3	23	3	4	2	I	1	0	208	0	Ⴖ	cut_j_stereo_44KHz.wav
3	24	4	3	2	I	1	0	1332	0	Ⴉ	cut_n_stereo_44KHz.wav
3	25	1	1	1	C	2	1	666	1	Ⴐ	cut_oei_stereo_44KHz.wav
3	26	4	4	2	I	1	0	374	1	Ⴉ	cut_j_stereo_44KHz.wav
3	27	3	4	2	I	2	0	194	1	Ⴖ	cut_j_stereo_44KHz.wav
3	28	2	2	1	C	1	0	494	0	Ⴌ	cut_ei_stereo_44KHz.wav
3	29	4	3	2	I	1	0	236	0	Ⴉ	cut_n_stereo_44KHz.wav
3	30	3	3	2	I	2	0	1031	1	Ⴖ	cut_n_stereo_44KHz.wav
3	31	1	2	0	C	1	1	704	1	Ⴐ	cut_ei_stereo_44KHz.wav
3	32	2	1	0	C	2	0	697	0	Ⴌ	cut_oei_stereo_44KHz.wav
3	33	4	4	2	I	1	0	1031	1	Ⴉ	cut_j_stereo_44KHz.wav
3	34	3	4	2	I	2	0	1512	1	Ⴖ	cut_j_stereo_44KHz.wav
3	35	1	2	0	C	1	1	438	1	Ⴐ	cut_ei_stereo_44KHz.wav
3	36	2	2	1	C	2	1	888	1	Ⴌ	cut_ei_stereo_44KHz.wav
3	37	1	1	1	C	1	0	453	0	Ⴐ	cut_oei_stereo_44KHz.wav
3	38	2	1	0	C	1	1	351	1	Ⴌ	cut_oei_stereo_44KHz.wav
3	39	3	3	2	I	2	0	347	1	Ⴖ	cut_n_stereo_44KHz.wav
3	40	4	3	2	I	1	0	671	1	Ⴉ	cut_n_stereo_44KHz.wav
3	41	1	1	1	C	1	0	618	0	Ⴐ	cut_oei_stereo_44KHz.wav
3	42	2	2	1	C	2	1	759	1	Ⴌ	cut_ei_stereo_44KHz.wav
3	43	3	3	2	I	2	0	832	1	Ⴖ	cut_n_stereo_44KHz.wav
3	44	4	4	2	I	1	0	464	0	Ⴉ	cut_j_stereo_44KHz.wav
3	45	3	4	2	I	1	0	436	0	Ⴖ	cut_j_stereo_44KHz.wav
3	46	4	3	2	I	2	0	382	0	Ⴉ	cut_n_stereo_44KHz.wav
3	47	1	2	0	C	1	1	173	1	Ⴐ	cut_ei_stereo_44KHz.wav
3	48	2	1	0	C	1	1	713	1	Ⴌ	cut_oei_stereo_44KHz.wav
3	49	4	3	2	I	1	0	324	1	Ⴉ	cut_n_stereo_44KHz.wav
3	50	2	1	0	C	1	1	999	1	Ⴌ	cut_oei_stereo_44KHz.wav
3	51	3	4	2	I	1	0	1116	1	Ⴖ	cut_j_stereo_44KHz.wav
3	52	1	2	0	C	1	1	429	1	Ⴐ	cut_ei_stereo_44KHz.wav
3	53	2	2	1	C	1	0	432	0	Ⴌ	cut_ei_stereo_44KHz.wav
3	54	1	1	1	C	1	0	740	0	Ⴐ	cut_oei_stereo_44KHz.wav
3	55	4	4	2	I	1	0	280	0	Ⴉ	cut_j_stereo_44KHz.wav
3	56	3	3	2	I	1	0	697	0	Ⴖ	cut_n_stereo_44KHz.wav
3	57	4	3	2	I	1	0	613	0	Ⴉ	cut_n_stereo_44KHz.wav
3	58	1	1	1	C	1	0	336	0	Ⴐ	cut_oei_stereo_44KHz.wav
3	59	2	2	1	C	1	0	477	0	Ⴌ	cut_ei_stereo_44KHz.wav
3	60	3	4	2	I	2	0	636	1	Ⴖ	cut_j_stereo_44KHz.wav
3	61	1	2	0	C	1	1	604	1	Ⴐ	cut_ei_stereo_44KHz.wav
3	62	3	3	2	I	2	0	785	1	Ⴖ	cut_n_stereo_44KHz.wav
3	63	4	4	2	I	1	0	656	0	Ⴉ	cut_j_stereo_44KHz.wav
3	64	2	1	0	C	1	1	539	1	Ⴌ	cut_oei_stereo_44KHz.wav
3	65	3	3	2	I	1	0	409	0	Ⴖ	cut_n_stereo_44KHz.wav
3	66	2	2	1	C	0	0	0	0	Ⴌ	cut_ei_stereo_44KHz.wav
3	67	4	4	2	I	1	0	304	0	Ⴉ	cut_j_stereo_44KHz.wav
3	68	1	1	1	C	2	1	264	1	Ⴐ	cut_oei_stereo_44KHz.wav
3	69	3	4	2	I	2	0	621	1	Ⴖ	cut_j_stereo_44KHz.wav
3	70	4	3	2	I	1	0	983	0	Ⴉ	cut_n_stereo_44KHz.wav
3	71	2	1	0	C	1	1	365	1	Ⴌ	cut_oei_stereo_44KHz.wav
3	72	1	2	0	C	1	1	524	1	Ⴐ	cut_ei_stereo_44KHz.wav
3	73	3	4	2	I	2	0	407	1	Ⴖ	cut_j_stereo_44KHz.wav
3	74	2	2	1	C	1	0	777	0	Ⴌ	cut_ei_stereo_44KHz.wav
3	75	4	3	2	I	1	0	722	0	Ⴉ	cut_n_stereo_44KHz.wav
3	76	1	1	1	C	2	1	331	1	Ⴐ	cut_oei_stereo_44KHz.wav
3	77	2	1	0	C	1	1	393	1	Ⴌ	cut_oei_stereo_44KHz.wav
3	78	1	2	0	C	1	1	589	1	Ⴐ	cut_ei_stereo_44KHz.wav
3	79	3	3	2	I	1	0	690	1	Ⴖ	cut_n_stereo_44KHz.wav
3	80	4	4	2	I	1	0	637	0	Ⴉ	cut_j_stereo_44KHz.wav
3	81	2	2	1	C	1	0	310	0	Ⴌ	cut_ei_stereo_44KHz.wav
3	82	1	1	1	C	2	1	1093	1	Ⴐ	cut_oei_stereo_44KHz.wav
3	83	4	3	2	I	2	0	465	1	Ⴉ	cut_n_stereo_44KHz.wav
3	84	3	4	2	I	2	0	551	0	Ⴖ	cut_j_stereo_44KHz.wav
3	85	2	1	0	C	2	0	711	0	Ⴌ	cut_oei_stereo_44KHz.wav
3	86	4	4	2	I	1	0	970	1	Ⴉ	cut_j_stereo_44KHz.wav
3	87	3	3	2	I	2	0	782	0	Ⴖ	cut_n_stereo_44KHz.wav
3	88	1	2	0	C	1	1	397	1	Ⴐ	cut_ei_stereo_44KHz.wav
3	89	4	3	2	I	1	0	384	0	Ⴉ	cut_n_stereo_44KHz.wav
3	90	2	2	1	C	2	1	427	1	Ⴌ	cut_ei_stereo_44KHz.wav
3	91	3	4	2	I	1	0	324	0	Ⴖ	cut_j_stereo_44KHz.wav
3	92	1	1	1	C	2	1	428	1	Ⴐ	cut_oei_stereo_44KHz.wav
3	93	4	4	2	I	1	0	527	1	Ⴉ	cut_j_stereo_44KHz.wav
3	94	2	1	0	C	2	0	433	0	Ⴌ	cut_oei_stereo_44KHz.wav
3	95	1	2	0	C	1	1	1073	1	Ⴐ	cut_ei_stereo_44KHz.wav
3	96	3	3	2	I	1	0	581	0	Ⴖ	cut_n_stereo_44KHz.wav
3	97	1	1	1	C	2	1	253	1	Ⴐ	cut_oei_stereo_44KHz.wav
3	98	2	1	0	C	2	0	382	0	Ⴌ	cut_oei_stereo_44KHz.wav
3	99	3	4	2	I	1	0	819	0	Ⴖ	cut_j_stereo_44KHz.wav
3	100	4	3	2	I	1	0	497	1	Ⴉ	cut_n_stereo_44KHz.wav
3	101	3	3	2	I	1	0	1059	1	Ⴖ	cut_n_stereo_44KHz.wav
3	102	1	2	0	C	1	1	368	1	Ⴐ	cut_ei_stereo_44KHz.wav
3	103	4	4	2	I	1	0	186	1	Ⴉ	cut_j_stereo_44KHz.wav
3	104	2	2	1	C	1	0	498	0	Ⴌ	cut_ei_stereo_44KHz.wav
3	105	1	2	0	C	1	1	354	1	Ⴐ	cut_ei_stereo_44KHz.wav
3	106	4	4	2	I	1	0	481	0	Ⴉ	cut_j_stereo_44KHz.wav
3	107	2	1	0	C	1	1	268	1	Ⴌ	cut_oei_stereo_44KHz.wav
3	108	3	3	2	I	1	0	485	1	Ⴖ	cut_n_stereo_44KHz.wav
3	109	2	2	1	C	1	0	362	0	Ⴌ	cut_ei_stereo_44KHz.wav
3	110	4	3	2	I	2	0	356	1	Ⴉ	cut_n_stereo_44KHz.wav
3	111	3	4	2	I	2	0	654	1	Ⴖ	cut_j_stereo_44KHz.wav
3	112	1	1	1	C	2	1	706	1	Ⴐ	cut_oei_stereo_44KHz.wav
3	113	2	1	0	C	2	0	385	0	Ⴌ	cut_oei_stereo_44KHz.wav
3	114	3	4	2	I	1	0	832	1	Ⴖ	cut_j_stereo_44KHz.wav
3	115	4	3	2	I	1	0	274	0	Ⴉ	cut_n_stereo_44KHz.wav
3	116	1	1	1	C	2	1	263	1	Ⴐ	cut_oei_stereo_44KHz.wav
3	117	4	4	2	I	2	0	423	1	Ⴉ	cut_j_stereo_44KHz.wav
3	118	2	2	1	C	1	0	356	0	Ⴌ	cut_ei_stereo_44KHz.wav
3	119	1	2	0	C	1	1	714	1	Ⴐ	cut_ei_stereo_44KHz.wav
3	120	3	3	2	I	1	0	443	0	Ⴖ	cut_n_stereo_44KHz.wav
3	121	2	1	0	C	2	0	243	0	Ⴌ	cut_oei_stereo_44KHz.wav
3	122	4	3	2	I	1	0	84	0	Ⴉ	cut_n_stereo_44KHz.wav
3	123	3	3	2	I	1	0	507	1	Ⴖ	cut_n_stereo_44KHz.wav
3	124	1	1	1	C	1	0	469	0	Ⴐ	cut_oei_stereo_44KHz.wav
3	125	2	2	1	C	2	1	434	1	Ⴌ	cut_ei_stereo_44KHz.wav
3	126	3	4	2	I	1	0	375	0	Ⴖ	cut_j_stereo_44KHz.wav
3	127	1	2	0	C	2	0	278	0	Ⴐ	cut_ei_stereo_44KHz.wav
3	128	4	4	2	I	1	0	321	1	Ⴉ	cut_j_stereo_44KHz.wav
3	129	1	2	0	C	1	1	624	1	Ⴐ	cut_ei_stereo_44KHz.wav
3	130	4	4	2	I	1	0	296	1	Ⴉ	cut_j_stereo_44KHz.wav
3	131	2	1	0	C	1	1	380	1	Ⴌ	cut_oei_stereo_44KHz.wav
3	132	3	4	2	I	2	0	520	0	Ⴖ	cut_j_stereo_44KHz.wav
3	133	1	1	1	C	1	0	872	0	Ⴐ	cut_oei_stereo_44KHz.wav
3	134	3	3	2	I	1	0	382	1	Ⴖ	cut_n_stereo_44KHz.wav
3	135	2	2	1	C	1	0	374	0	Ⴌ	cut_ei_stereo_44KHz.wav
3	136	4	3	2	I	1	0	305	0	Ⴉ	cut_n_stereo_44KHz.wav
3	137	3	4	2	I	1	0	422	0	Ⴖ	cut_j_stereo_44KHz.wav
3	138	1	2	0	C	2	0	212	0	Ⴐ	cut_ei_stereo_44KHz.wav
3	139	2	1	0	C	1	1	295	1	Ⴌ	cut_oei_stereo_44KHz.wav
3	140	4	3	2	I	1	0	307	1	Ⴉ	cut_n_stereo_44KHz.wav
3	141	3	3	2	I	1	0	281	1	Ⴖ	cut_n_stereo_44KHz.wav
3	142	2	2	1	C	1	0	396	0	Ⴌ	cut_ei_stereo_44KHz.wav
3	143	1	1	1	C	2	1	323	1	Ⴐ	cut_oei_stereo_44KHz.wav
3	144	4	4	2	I	1	0	829	1	Ⴉ	cut_j_stereo_44KHz.wav
3	145	3	3	2	I	1	0	238	0	Ⴖ	cut_n_stereo_44KHz.wav
3	146	2	2	1	C	1	0	625	0	Ⴌ	cut_ei_stereo_44KHz.wav
3	147	4	4	2	I	2	0	178	1	Ⴉ	cut_j_stereo_44KHz.wav
3	148	1	2	0	C	1	1	311	1	Ⴐ	cut_ei_stereo_44KHz.wav
3	149	3	4	2	I	2	0	426	1	Ⴖ	cut_j_stereo_44KHz.wav
3	150	4	3	2	I	2	0	324	1	Ⴉ	cut_n_stereo_44KHz.wav
3	151	2	1	0	C	2	0	348	0	Ⴌ	cut_oei_stereo_44KHz.wav
3	152	1	1	1	C	1	0	244	0	Ⴐ	cut_oei_stereo_44KHz.wav
3	153	3	4	2	I	1	0	294	0	Ⴖ	cut_j_stereo_44KHz.wav
3	154	4	4	2	I	1	0	572	0	Ⴉ	cut_j_stereo_44KHz.wav
3	155	1	1	1	C	2	1	627	1	Ⴐ	cut_oei_stereo_44KHz.wav
3	156	2	1	0	C	2	0	327	0	Ⴌ	cut_oei_stereo_44KHz.wav
3	157	3	3	2	I	1	0	231	0	Ⴖ	cut_n_stereo_44KHz.wav
3	158	1	2	0	C	1	1	940	1	Ⴐ	cut_ei_stereo_44KHz.wav
3	159	2	2	1	C	1	0	333	0	Ⴌ	cut_ei_stereo_44KHz.wav
3	160	4	3	2	I	2	0	279	1	Ⴉ	cut_n_stereo_44KHz.wav
3	161	2	1	0	C	1	1	474	1	Ⴌ	cut_oei_stereo_44KHz.wav
3	162	4	3	2	I	2	0	294	0	Ⴉ	cut_n_stereo_44KHz.wav
3	163	3	3	2	I	1	0	809	1	Ⴖ	cut_n_stereo_44KHz.wav
3	164	1	2	0	C	1	1	325	1	Ⴐ	cut_ei_stereo_44KHz.wav
3	165	4	4	2	I	1	0	402	1	Ⴉ	cut_j_stereo_44KHz.wav
3	166	1	1	1	C	1	0	487	0	Ⴐ	cut_oei_stereo_44KHz.wav
3	167	2	2	1	C	1	0	443	0	Ⴌ	cut_ei_stereo_44KHz.wav
3	168	3	4	2	I	1	0	747	1	Ⴖ	cut_j_stereo_44KHz.wav
3	169	2	2	1	C	2	1	442	1	Ⴌ	cut_ei_stereo_44KHz.wav
3	170	1	1	1	C	1	0	715	0	Ⴐ	cut_oei_stereo_44KHz.wav
3	171	4	3	2	I	2	0	460	1	Ⴉ	cut_n_stereo_44KHz.wav
3	172	3	4	2	I	1	0	738	1	Ⴖ	cut_j_stereo_44KHz.wav
3	173	2	1	0	C	1	1	476	1	Ⴌ	cut_oei_stereo_44KHz.wav
3	174	1	2	0	C	1	1	391	1	Ⴐ	cut_ei_stereo_44KHz.wav
3	175	4	4	2	I	1	0	258	0	Ⴉ	cut_j_stereo_44KHz.wav
3	176	3	3	2	I	2	0	629	0	Ⴖ	cut_n_stereo_44KHz.wav
3	177	2	2	1	C	1	0	400	0	Ⴌ	cut_ei_stereo_44KHz.wav
3	178	1	2	0	C	1	1	415	1	Ⴐ	cut_ei_stereo_44KHz.wav
3	179	4	3	2	I	1	0	377	1	Ⴉ	cut_n_stereo_44KHz.wav
3	180	3	3	2	I	1	0	425	0	Ⴖ	cut_n_stereo_44KHz.wav
3	181	2	1	0	C	1	1	422	1	Ⴌ	cut_oei_stereo_44KHz.wav
3	182	4	4	2	I	1	0	651	1	Ⴉ	cut_j_stereo_44KHz.wav
3	183	1	1	1	C	1	0	517	0	Ⴐ	cut_oei_stereo_44KHz.wav
3	184	3	4	2	I	2	0	316	0	Ⴖ	cut_j_stereo_44KHz.wav
3	185	1	1	1	C	1	0	918	0	Ⴐ	cut_oei_stereo_44KHz.wav
3	186	4	4	2	I	2	0	416	1	Ⴉ	cut_j_stereo_44KHz.wav
3	187	2	1	0	C	1	1	343	1	Ⴌ	cut_oei_stereo_44KHz.wav
3	188	3	4	2	I	1	0	154	1	Ⴖ	cut_j_stereo_44KHz.wav
3	189	4	3	2	I	1	0	706	0	Ⴉ	cut_n_stereo_44KHz.wav
3	190	1	2	0	C	1	1	467	1	Ⴐ	cut_ei_stereo_44KHz.wav
3	191	2	2	1	C	2	1	1031	1	Ⴌ	cut_ei_stereo_44KHz.wav
3	192	3	3	2	I	1	0	879	1	Ⴖ	cut_n_stereo_44KHz.wav
3	193	4	4	2	I	2	0	787	0	Ⴉ	cut_j_stereo_44KHz.wav
3	194	2	1	0	C	2	0	720	0	Ⴌ	cut_oei_stereo_44KHz.wav
3	195	3	4	2	I	1	0	544	0	Ⴖ	cut_j_stereo_44KHz.wav
3	196	1	1	1	C	1	0	217	0	Ⴐ	cut_oei_stereo_44KHz.wav
3	197	2	2	1	C	2	1	503	1	Ⴌ	cut_ei_stereo_44KHz.wav
3	198	3	3	2	I	1	0	871	0	Ⴖ	cut_n_stereo_44KHz.wav
3	199	1	2	0	C	2	0	698	0	Ⴐ	cut_ei_stereo_44KHz.wav
3	200	4	3	2	I	1	0	362	0	Ⴉ	cut_n_stereo_44KHz.wav
4	1	3	3	2	I	2	0	1052	0	Ⴊ	cut_w_stereo_44KHz.wav
4	2	1	1	1	C	1	0	313	0	Ⴜ	cut_h_stereo_44KHz.wav
4	3	2	1	0	C	2	0	192	0	Ⴡ	cut_h_stereo_44KHz.wav
4	4	4	3	2	I	1	0	1128	0	Ⴃ	cut_w_stereo_44KHz.wav
4	5	3	4	2	I	1	0	765	0	Ⴊ	cut_l_stereo_44KHz.wav
4	6	1	2	0	C	2	0	311	0	Ⴜ	cut_g_stereo_44KHz.wav
4	7	4	4	2	I	1	0	363	1	Ⴃ	cut_l_stereo_44KHz.wav
4	8	2	2	1	C	1	0	366	0	Ⴡ	cut_g_stereo_44KHz.wav
4	9	3	4	2	I	1	0	450	1	Ⴊ	cut_l_stereo_44KHz.wav
4	10	2	1	0	C	1	1	459	1	Ⴡ	cut_h_stereo_44KHz.wav
4	11	1	2	0	C	1	1	804	1	Ⴜ	cut_g_stereo_44KHz.wav
4	12	4	3	2	I	2	0	276	1	Ⴃ	cut_w_stereo_44KHz.wav
4	13	2	2	1	C	1	0	778	0	Ⴡ	cut_g_stereo_44KHz.wav
4	14	3	3	2	I	2	0	292	0	Ⴊ	cut_w_stereo_44KHz.wav
4	15	1	1	1	C	1	0	224	0	Ⴜ	cut_h_stereo_44KHz.wav
4	16	4	4	2	I	2	0	489	1	Ⴃ	cut_l_stereo_44KHz.wav
4	17	1	1	1	C	1	0	207	0	Ⴜ	cut_h_stereo_44KHz.wav
4	18	2	1	0	C	2	0	392	0	Ⴡ	cut_h_stereo_44KHz.wav
4	19	3	4	2	I	1	0	783	1	Ⴊ	cut_l_stereo_44KHz.wav
4	20	4	3	2	I	1	0	959	1	Ⴃ	cut_w_stereo_44KHz.wav
4	21	2	2	1	C	1	0	376	0	Ⴡ	cut_g_stereo_44KHz.wav
4	22	1	2	0	C	2	0	389	0	Ⴜ	cut_g_stereo_44KHz.wav
4	23	4	4	2	I	1	0	350	1	Ⴃ	cut_l_stereo_44KHz.wav
4	24	3	3	2	I	1	0	523	1	Ⴊ	cut_w_stereo_44KHz.wav
4	25	2	2	1	C	1	0	201	0	Ⴡ	cut_g_stereo_44KHz.wav
4	26	4	3	2	I	2	0	399	0	Ⴃ	cut_w_stereo_44KHz.wav
4	27	1	2	0	C	1	1	621	1	Ⴜ	cut_g_stereo_44KHz.wav
4	28	3	3	2	I	1	0	342	0	Ⴊ	cut_w_stereo_44KHz.wav
4	29	2	1	0	C	2	0	459	0	Ⴡ	cut_h_stereo_44KHz.wav
4	30	4	4	2	I	1	0	447	0	Ⴃ	cut_l_stereo_44KHz.wav
4	31	3	4	2	I	1	0	321	0	Ⴊ	cut_l_stereo_44KHz.wav
4	32	1	1	1	C	1	0	792	0	Ⴜ	cut_h_stereo_44KHz.wav
4	33	4	3	2	I	2	0	277	1	Ⴃ	cut_w_stereo_44KHz.wav
4	34	2	1	0	C	1	1	282	1	Ⴡ	cut_h_stereo_44KHz.wav
4	35	3	3	2	I	1	0	241	1	Ⴊ	cut_w_stereo_44KHz.wav
4	36	1	1	1	C	1	0	603	0	Ⴜ	cut_h_stereo_44KHz.wav
4	37	2	2	1	C	2	1	269	1	Ⴡ	cut_g_stereo_44KHz.wav
4	38	1	2	0	C	2	0	492	0	Ⴜ	cut_g_stereo_44KHz.wav
4	39	3	4	2	I	1	0	397	0	Ⴊ	cut_l_stereo_44KHz.wav
4	40	4	4	2	I	2	0	436	1	Ⴃ	cut_l_stereo_44KHz.wav
4	41	2	2	1	C	1	0	730	0	Ⴡ	cut_g_stereo_44KHz.wav
4	42	4	4	2	I	1	0	592	1	Ⴃ	cut_l_stereo_44KHz.wav
4	43	3	3	2	I	1	0	695	0	Ⴊ	cut_w_stereo_44KHz.wav
4	44	1	2	0	C	1	1	543	1	Ⴜ	cut_g_stereo_44KHz.wav
4	45	4	3	2	I	1	0	895	1	Ⴃ	cut_w_stereo_44KHz.wav
4	46	2	1	0	C	1	1	586	1	Ⴡ	cut_h_stereo_44KHz.wav
4	47	3	4	2	I	2	0	645	0	Ⴊ	cut_l_stereo_44KHz.wav
4	48	1	1	1	C	1	0	507	0	Ⴜ	cut_h_stereo_44KHz.wav
4	49	2	1	0	C	2	0	504	0	Ⴡ	cut_h_stereo_44KHz.wav
4	50	3	4	2	I	1	0	58	1	Ⴊ	cut_l_stereo_44KHz.wav
4	51	4	4	2	I	1	0	602	0	Ⴃ	cut_l_stereo_44KHz.wav
4	52	1	2	0	C	2	0	294	0	Ⴜ	cut_g_stereo_44KHz.wav
4	53	4	3	2	I	1	0	882	0	Ⴃ	cut_w_stereo_44KHz.wav
4	54	1	1	1	C	2	1	346	1	Ⴜ	cut_h_stereo_44KHz.wav
4	55	3	3	2	I	1	0	336	0	Ⴊ	cut_w_stereo_44KHz.wav
4	56	2	2	1	C	2	1	231	1	Ⴡ	cut_g_stereo_44KHz.wav
4	57	3	4	2	I	1	0	261	0	Ⴊ	cut_l_stereo_44KHz.wav
4	58	4	4	2	I	1	0	325	1	Ⴃ	cut_l_stereo_44KHz.wav
4	59	2	2	1	C	2	1	634	1	Ⴡ	cut_g_stereo_44KHz.wav
4	60	1	1	1	C	2	1	429	1	Ⴜ	cut_h_stereo_44KHz.wav
4	61	4	3	2	I	2	0	389	1	Ⴃ	cut_w_stereo_44KHz.wav
4	62	2	1	0	C	1	1	530	1	Ⴡ	cut_h_stereo_44KHz.wav
4	63	1	2	0	C	2	0	393	0	Ⴜ	cut_g_stereo_44KHz.wav
4	64	3	3	2	I	1	0	403	0	Ⴊ	cut_w_stereo_44KHz.wav
4	65	4	3	2	I	1	0	344	0	Ⴃ	cut_w_stereo_44KHz.wav
4	66	3	3	2	I	2	0	1486	1	Ⴊ	cut_w_stereo_44KHz.wav
4	67	2	1	0	C	1	1	549	1	Ⴡ	cut_h_stereo_44KHz.wav
4	68	1	1	1	C	1	0	394	0	Ⴜ	cut_h_stereo_44KHz.wav
4	69	3	4	2	I	2	0	21	1	Ⴊ	cut_l_stereo_44KHz.wav
4	70	1	2	0	C	2	0	697	0	Ⴜ	cut_g_stereo_44KHz.wav
4	71	2	2	1	C	1	0	688	0	Ⴡ	cut_g_stereo_44KHz.wav
4	72	4	4	2	I	1	0	731	0	Ⴃ	cut_l_stereo_44KHz.wav
4	73	1	2	0	C	1	1	351	1	Ⴜ	cut_g_stereo_44KHz.wav
4	74	3	3	2	I	2	0	813	1	Ⴊ	cut_w_stereo_44KHz.wav
4	75	2	1	0	C	2	0	581	0	Ⴡ	cut_h_stereo_44KHz.wav
4	76	4	3	2	I	1	0	318	0	Ⴃ	cut_w_stereo_44KHz.wav
4	77	3	4	2	I	2	0	397	0	Ⴊ	cut_l_stereo_44KHz.wav
4	78	4	4	2	I	1	0	407	0	Ⴃ	cut_l_stereo_44KHz.wav
4	79	2	2	1	C	1	0	446	0	Ⴡ	cut_g_stereo_44KHz.wav
4	80	1	1	1	C	2	1	262	1	Ⴜ	cut_h_stereo_44KHz.wav
4	81	3	4	2	I	2	0	1748	0	Ⴊ	cut_l_stereo_44KHz.wav
4	82	1	1	1	C	1	0	849	0	Ⴜ	cut_h_stereo_44KHz.wav
4	83	4	3	2	I	1	0	1002	0	Ⴃ	cut_w_stereo_44KHz.wav
4	84	2	1	0	C	1	1	396	1	Ⴡ	cut_h_stereo_44KHz.wav
4	85	1	2	0	C	1	1	577	1	Ⴜ	cut_g_stereo_44KHz.wav
4	86	4	4	2	I	2	0	281	0	Ⴃ	cut_l_stereo_44KHz.wav
4	87	3	3	2	I	1	0	1014	1	Ⴊ	cut_w_stereo_44KHz.wav
4	88	2	2	1	C	1	0	844	0	Ⴡ	cut_g_stereo_44KHz.wav
4	89	4	4	2	I	2	0	392	1	Ⴃ	cut_l_stereo_44KHz.wav
4	90	2	2	1	C	2	1	405	1	Ⴡ	cut_g_stereo_44KHz.wav
4	91	3	3	2	I	1	0	534	1	Ⴊ	cut_w_stereo_44KHz.wav
4	92	1	1	1	C	1	0	504	0	Ⴜ	cut_h_stereo_44KHz.wav
4	93	2	1	0	C	1	1	400	1	Ⴡ	cut_h_stereo_44KHz.wav
4	94	4	3	2	I	1	0	416	0	Ⴃ	cut_w_stereo_44KHz.wav
4	95	3	4	2	I	1	0	384	0	Ⴊ	cut_l_stereo_44KHz.wav
4	96	1	2	0	C	1	1	757	1	Ⴜ	cut_g_stereo_44KHz.wav
4	97	2	1	0	C	1	1	322	1	Ⴡ	cut_h_stereo_44KHz.wav
4	98	1	2	0	C	1	1	449	1	Ⴜ	cut_g_stereo_44KHz.wav
4	99	4	4	2	I	1	0	227	1	Ⴃ	cut_l_stereo_44KHz.wav
4	100	3	3	2	I	1	0	420	1	Ⴊ	cut_w_stereo_44KHz.wav
4	101	4	3	2	I	1	0	552	0	Ⴃ	cut_w_stereo_44KHz.wav
4	102	2	2	1	C	2	1	395	1	Ⴡ	cut_g_stereo_44KHz.wav
4	103	3	4	2	I	2	0	659	1	Ⴊ	cut_l_stereo_44KHz.wav
4	104	1	1	1	C	1	0	872	0	Ⴜ	cut_h_stereo_44KHz.wav
4	105	2	1	0	C	2	0	358	0	Ⴡ	cut_h_stereo_44KHz.wav
4	106	1	2	0	C	1	1	940	1	Ⴜ	cut_g_stereo_44KHz.wav
4	107	4	3	2	I	1	0	552	1	Ⴃ	cut_w_stereo_44KHz.wav
4	108	3	3	2	I	1	0	532	1	Ⴊ	cut_w_stereo_44KHz.wav
4	109	4	4	2	I	1	0	607	0	Ⴃ	cut_l_stereo_44KHz.wav
4	110	3	4	2	I	2	0	723	1	Ⴊ	cut_l_stereo_44KHz.wav
4	111	2	2	1	C	1	0	944	0	Ⴡ	cut_g_stereo_44KHz.wav
4	112	1	1	1	C	1	0	497	0	Ⴜ	cut_h_stereo_44KHz.wav
4	113	4	4	2	I	1	0	338	1	Ⴃ	cut_l_stereo_44KHz.wav
4	114	1	2	0	C	1	1	386	1	Ⴜ	cut_g_stereo_44KHz.wav
4	115	2	2	1	C	1	0	426	0	Ⴡ	cut_g_stereo_44KHz.wav
4	116	3	4	2	I	2	0	308	0	Ⴊ	cut_l_stereo_44KHz.wav
4	117	4	3	2	I	1	0	158	0	Ⴃ	cut_w_stereo_44KHz.wav
4	118	1	1	1	C	1	0	584	0	Ⴜ	cut_h_stereo_44KHz.wav
4	119	3	3	2	I	2	0	456	0	Ⴊ	cut_w_stereo_44KHz.wav
4	120	2	1	0	C	1	1	452	1	Ⴡ	cut_h_stereo_44KHz.wav
4	121	1	1	1	C	1	0	461	0	Ⴜ	cut_h_stereo_44KHz.wav
4	122	4	4	2	I	2	0	528	1	Ⴃ	cut_l_stereo_44KHz.wav
4	123	2	2	1	C	1	0	445	0	Ⴡ	cut_g_stereo_44KHz.wav
4	124	3	3	2	I	1	0	436	0	Ⴊ	cut_w_stereo_44KHz.wav
4	125	4	3	2	I	1	0	606	1	Ⴃ	cut_w_stereo_44KHz.wav
4	126	2	1	0	C	1	1	606	1	Ⴡ	cut_h_stereo_44KHz.wav
4	127	1	2	0	C	2	0	521	0	Ⴜ	cut_g_stereo_44KHz.wav
4	128	3	4	2	I	1	0	427	1	Ⴊ	cut_l_stereo_44KHz.wav
4	129	1	1	1	C	1	0	446	0	Ⴜ	cut_h_stereo_44KHz.wav
4	130	4	4	2	I	2	0	341	1	Ⴃ	cut_l_stereo_44KHz.wav
4	131	3	3	2	I	1	0	385	0	Ⴊ	cut_w_stereo_44KHz.wav
4	132	2	2	1	C	2	1	335	1	Ⴡ	cut_g_stereo_44KHz.wav
4	133	4	3	2	I	1	0	713	1	Ⴃ	cut_w_stereo_44KHz.wav
4	134	1	2	0	C	1	1	673	1	Ⴜ	cut_g_stereo_44KHz.wav
4	135	3	4	2	I	1	0	247	1	Ⴊ	cut_l_stereo_44KHz.wav
4	136	2	1	0	C	1	1	341	1	Ⴡ	cut_h_stereo_44KHz.wav
4	137	1	1	1	C	1	0	423	0	Ⴜ	cut_h_stereo_44KHz.wav
4	138	2	1	0	C	2	0	377	0	Ⴡ	cut_h_stereo_44KHz.wav
4	139	3	3	2	I	1	0	560	1	Ⴊ	cut_w_stereo_44KHz.wav
4	140	4	3	2	I	1	0	187	0	Ⴃ	cut_w_stereo_44KHz.wav
4	141	2	2	1	C	2	1	362	1	Ⴡ	cut_g_stereo_44KHz.wav
4	142	4	4	2	I	2	0	275	1	Ⴃ	cut_l_stereo_44KHz.wav
4	143	1	2	0	C	1	1	361	1	Ⴜ	cut_g_stereo_44KHz.wav
4	144	3	4	2	I	1	0	729	0	Ⴊ	cut_l_stereo_44KHz.wav
4	145	2	1	0	C	1	1	460	1	Ⴡ	cut_h_stereo_44KHz.wav
4	146	1	2	0	C	1	1	1016	1	Ⴜ	cut_g_stereo_44KHz.wav
4	147	3	3	2	I	1	0	436	0	Ⴊ	cut_w_stereo_44KHz.wav
4	148	4	3	2	I	2	0	96	1	Ⴃ	cut_w_stereo_44KHz.wav
4	149	1	1	1	C	2	1	420	1	Ⴜ	cut_h_stereo_44KHz.wav
4	150	2	2	1	C	2	1	272	1	Ⴡ	cut_g_stereo_44KHz.wav
4	151	4	4	2	I	0	0	0	0	Ⴃ	cut_l_stereo_44KHz.wav
4	152	3	4	2	I	2	0	278	1	Ⴊ	cut_l_stereo_44KHz.wav
4	153	1	1	1	C	1	0	282	0	Ⴜ	cut_h_stereo_44KHz.wav
4	154	4	4	2	I	2	0	599	0	Ⴃ	cut_l_stereo_44KHz.wav
4	155	3	4	2	I	1	0	450	0	Ⴊ	cut_l_stereo_44KHz.wav
4	156	2	2	1	C	1	0	375	0	Ⴡ	cut_g_stereo_44KHz.wav
4	157	3	3	2	I	1	0	545	1	Ⴊ	cut_w_stereo_44KHz.wav
4	158	2	1	0	C	1	1	491	1	Ⴡ	cut_h_stereo_44KHz.wav
4	159	1	2	0	C	1	1	412	1	Ⴜ	cut_g_stereo_44KHz.wav
4	160	4	3	2	I	1	0	319	1	Ⴃ	cut_w_stereo_44KHz.wav
4	161	2	2	1	C	1	0	455	0	Ⴡ	cut_g_stereo_44KHz.wav
4	162	1	1	1	C	2	1	655	1	Ⴜ	cut_h_stereo_44KHz.wav
4	163	4	4	2	I	1	0	514	1	Ⴃ	cut_l_stereo_44KHz.wav
4	164	3	3	2	I	1	0	417	1	Ⴊ	cut_w_stereo_44KHz.wav
4	165	1	2	0	C	2	0	301	0	Ⴜ	cut_g_stereo_44KHz.wav
4	166	3	4	2	I	1	0	173	0	Ⴊ	cut_l_stereo_44KHz.wav
4	167	4	3	2	I	2	0	751	1	Ⴃ	cut_w_stereo_44KHz.wav
4	168	2	1	0	C	1	1	1299	1	Ⴡ	cut_h_stereo_44KHz.wav
4	169	4	4	2	I	1	0	398	1	Ⴃ	cut_l_stereo_44KHz.wav
4	170	1	2	0	C	2	0	319	0	Ⴜ	cut_g_stereo_44KHz.wav
4	171	3	4	2	I	1	0	329	0	Ⴊ	cut_l_stereo_44KHz.wav
4	172	2	1	0	C	1	1	374	1	Ⴡ	cut_h_stereo_44KHz.wav
4	173	4	3	2	I	1	0	711	0	Ⴃ	cut_w_stereo_44KHz.wav
4	174	1	1	1	C	0	0	0	0	Ⴜ	cut_h_stereo_44KHz.wav
4	175	2	2	1	C	1	0	368	0	Ⴡ	cut_g_stereo_44KHz.wav
4	176	3	3	2	I	2	0	81	0	Ⴊ	cut_w_stereo_44KHz.wav
4	177	2	2	1	C	1	0	536	0	Ⴡ	cut_g_stereo_44KHz.wav
4	178	4	3	2	I	2	0	406	0	Ⴃ	cut_w_stereo_44KHz.wav
4	179	1	2	0	C	1	1	466	1	Ⴜ	cut_g_stereo_44KHz.wav
4	180	3	3	2	I	1	0	293	1	Ⴊ	cut_w_stereo_44KHz.wav
4	181	1	1	1	C	1	0	410	0	Ⴜ	cut_h_stereo_44KHz.wav
4	182	3	4	2	I	1	0	797	1	Ⴊ	cut_l_stereo_44KHz.wav
4	183	2	1	0	C	1	1	312	1	Ⴡ	cut_h_stereo_44KHz.wav
4	184	4	4	2	I	1	0	485	0	Ⴃ	cut_l_stereo_44KHz.wav
4	185	3	3	2	I	2	0	239	1	Ⴊ	cut_w_stereo_44KHz.wav
4	186	4	3	2	I	2	0	767	0	Ⴃ	cut_w_stereo_44KHz.wav
4	187	1	1	1	C	1	0	535	0	Ⴜ	cut_h_stereo_44KHz.wav
4	188	2	2	1	C	1	0	497	0	Ⴡ	cut_g_stereo_44KHz.wav
4	189	4	4	2	I	1	0	261	0	Ⴃ	cut_l_stereo_44KHz.wav
4	190	3	4	2	I	1	0	284	0	Ⴊ	cut_l_stereo_44KHz.wav
4	191	2	1	0	C	2	0	760	0	Ⴡ	cut_h_stereo_44KHz.wav
4	192	1	2	0	C	1	1	438	1	Ⴜ	cut_g_stereo_44KHz.wav
4	193	2	1	0	C	1	1	455	1	Ⴡ	cut_h_stereo_44KHz.wav
4	194	4	4	2	I	1	0	461	0	Ⴃ	cut_l_stereo_44KHz.wav
4	195	3	4	2	I	2	0	1392	1	Ⴊ	cut_l_stereo_44KHz.wav
4	196	1	1	1	C	2	1	320	1	Ⴜ	cut_h_stereo_44KHz.wav
4	197	3	3	2	I	2	0	789	1	Ⴊ	cut_w_stereo_44KHz.wav
4	198	2	2	1	C	1	0	738	0	Ⴡ	cut_g_stereo_44KHz.wav
4	199	4	3	2	I	2	0	348	0	Ⴃ	cut_w_stereo_44KHz.wav
4	200	1	2	0	C	1	1	407	1	Ⴜ	cut_g_stereo_44KHz.wav
