block	trial	Vstim	Astim	match	C/I	resp	result	RT	fb	V-file	A-file
LR

0	1	2	4	0	C	0	0	0	0	Ⴋ	cut_oo_stereo_44KHz.wav
0	2	1	2	0	C	2	0	1915	0	Ⴢ	cut_eeuw_stereo_44KHz.wav
0	3	1	1	1	C	0	0	0	0	Ⴢ	cut_ee_stereo_44KHz.wav
0	4	2	3	1	C	2	1	1402	1	Ⴋ	cut_g_stereo_44KHz.wav
0	5	2	3	1	C	2	1	1741	1	Ⴋ	cut_g_stereo_44KHz.wav
0	6	2	4	0	C	1	1	1715	1	Ⴋ	cut_oo_stereo_44KHz.wav
0	7	1	1	1	C	1	0	1582	0	Ⴢ	cut_ee_stereo_44KHz.wav
0	8	1	2	0	C	1	1	1318	1	Ⴢ	cut_eeuw_stereo_44KHz.wav
0	9	1	1	1	C	0	0	0	0	Ⴢ	cut_ee_stereo_44KHz.wav
0	10	2	3	1	C	0	0	0	0	Ⴋ	cut_g_stereo_44KHz.wav
0	11	1	2	0	C	2	0	1216	0	Ⴢ	cut_eeuw_stereo_44KHz.wav
0	12	2	4	0	C	1	1	1193	1	Ⴋ	cut_oo_stereo_44KHz.wav
0	13	2	4	0	C	1	1	1093	1	Ⴋ	cut_oo_stereo_44KHz.wav
0	14	2	3	1	C	0	0	0	0	Ⴋ	cut_g_stereo_44KHz.wav
0	15	1	2	0	C	2	0	1313	0	Ⴢ	cut_eeuw_stereo_44KHz.wav
0	16	1	1	1	C	2	1	1444	1	Ⴢ	cut_ee_stereo_44KHz.wav
0	17	1	2	0	C	1	1	1390	1	Ⴢ	cut_eeuw_stereo_44KHz.wav
0	18	2	3	1	C	2	1	1196	1	Ⴋ	cut_g_stereo_44KHz.wav
0	19	1	1	1	C	0	0	0	0	Ⴢ	cut_ee_stereo_44KHz.wav
0	20	2	4	0	C	2	0	1015	0	Ⴋ	cut_oo_stereo_44KHz.wav
0	21	2	4	0	C	1	1	1308	1	Ⴋ	cut_oo_stereo_44KHz.wav
0	22	1	2	0	C	0	0	0	0	Ⴢ	cut_eeuw_stereo_44KHz.wav
0	23	2	3	1	C	2	1	1131	1	Ⴋ	cut_g_stereo_44KHz.wav
0	24	1	1	1	C	2	1	1100	1	Ⴢ	cut_ee_stereo_44KHz.wav
0	25	2	4	0	C	1	1	1400	1	Ⴋ	cut_oo_stereo_44KHz.wav
0	26	1	1	1	C	2	1	958	1	Ⴢ	cut_ee_stereo_44KHz.wav
0	27	2	3	1	C	2	1	901	1	Ⴋ	cut_g_stereo_44KHz.wav
0	28	1	2	0	C	1	1	1641	1	Ⴢ	cut_eeuw_stereo_44KHz.wav
0	29	1	1	1	C	2	1	1522	1	Ⴢ	cut_ee_stereo_44KHz.wav
0	30	2	4	0	C	1	1	992	1	Ⴋ	cut_oo_stereo_44KHz.wav
avg_resp = 1303
1	1	4	4	2	I	1	0	1684	1	Ⴔ	cut_w_stereo_44KHz.wav
1	2	3	4	2	I	2	0	879	0	Ⴉ	cut_w_stereo_44KHz.wav
1	3	2	1	0	C	1	1	1269	1	Ⴖ	cut_h_stereo_44KHz.wav
1	4	1	2	0	C	2	0	1214	0	Ⴕ	cut_l_stereo_44KHz.wav
1	5	2	2	1	C	2	1	1019	1	Ⴖ	cut_l_stereo_44KHz.wav
1	6	3	3	2	I	1	0	1267	0	Ⴉ	cut_g_stereo_44KHz.wav
1	7	1	1	1	C	1	0	908	0	Ⴕ	cut_h_stereo_44KHz.wav
1	8	4	3	2	I	1	0	1962	0	Ⴔ	cut_g_stereo_44KHz.wav
1	9	3	4	2	I	2	0	1398	1	Ⴉ	cut_w_stereo_44KHz.wav
1	10	2	1	0	C	1	1	1182	1	Ⴖ	cut_h_stereo_44KHz.wav
1	11	1	2	0	C	1	1	1293	1	Ⴕ	cut_l_stereo_44KHz.wav
1	12	4	3	2	I	1	0	1538	0	Ⴔ	cut_g_stereo_44KHz.wav
1	13	1	1	1	C	1	0	1359	0	Ⴕ	cut_h_stereo_44KHz.wav
1	14	3	3	2	I	0	0	0	0	Ⴉ	cut_g_stereo_44KHz.wav
1	15	2	2	1	C	2	1	1849	1	Ⴖ	cut_l_stereo_44KHz.wav
1	16	4	4	2	I	2	0	1264	1	Ⴔ	cut_w_stereo_44KHz.wav
1	17	1	1	1	C	1	0	1071	0	Ⴕ	cut_h_stereo_44KHz.wav
1	18	4	3	2	I	2	0	1065	1	Ⴔ	cut_g_stereo_44KHz.wav
1	19	2	1	0	C	1	1	995	1	Ⴖ	cut_h_stereo_44KHz.wav
1	20	3	4	2	I	1	0	1468	0	Ⴉ	cut_w_stereo_44KHz.wav
1	21	1	2	0	C	1	1	1433	1	Ⴕ	cut_l_stereo_44KHz.wav
1	22	4	4	2	I	2	0	1381	0	Ⴔ	cut_w_stereo_44KHz.wav
1	23	3	3	2	I	2	0	1413	1	Ⴉ	cut_g_stereo_44KHz.wav
1	24	2	2	1	C	0	0	0	0	Ⴖ	cut_l_stereo_44KHz.wav
1	25	4	4	2	I	2	0	1838	1	Ⴔ	cut_w_stereo_44KHz.wav
1	26	1	1	1	C	2	1	1380	1	Ⴕ	cut_h_stereo_44KHz.wav
1	27	3	4	2	I	2	0	1613	1	Ⴉ	cut_w_stereo_44KHz.wav
1	28	2	1	0	C	1	1	1674	1	Ⴖ	cut_h_stereo_44KHz.wav
1	29	4	3	2	I	2	0	1632	0	Ⴔ	cut_g_stereo_44KHz.wav
1	30	3	3	2	I	2	0	1135	0	Ⴉ	cut_g_stereo_44KHz.wav
1	31	1	2	0	C	2	0	1978	0	Ⴕ	cut_l_stereo_44KHz.wav
1	32	2	2	1	C	1	0	1287	0	Ⴖ	cut_l_stereo_44KHz.wav
1	33	4	4	2	I	2	0	1373	1	Ⴔ	cut_w_stereo_44KHz.wav
1	34	2	2	1	C	1	0	1329	0	Ⴖ	cut_l_stereo_44KHz.wav
1	35	3	3	2	I	1	0	1587	1	Ⴉ	cut_g_stereo_44KHz.wav
1	36	1	1	1	C	1	0	1223	0	Ⴕ	cut_h_stereo_44KHz.wav
1	37	2	1	0	C	1	1	691	1	Ⴖ	cut_h_stereo_44KHz.wav
1	38	3	4	2	I	2	0	1463	1	Ⴉ	cut_w_stereo_44KHz.wav
1	39	4	3	2	I	1	0	1701	0	Ⴔ	cut_g_stereo_44KHz.wav
1	40	1	2	0	C	2	0	1803	0	Ⴕ	cut_l_stereo_44KHz.wav
1	41	2	1	0	C	1	1	1033	1	Ⴖ	cut_h_stereo_44KHz.wav
1	42	1	2	0	C	1	1	1037	1	Ⴕ	cut_l_stereo_44KHz.wav
1	43	4	3	2	I	2	0	1123	0	Ⴔ	cut_g_stereo_44KHz.wav
1	44	3	3	2	I	2	0	866	0	Ⴉ	cut_g_stereo_44KHz.wav
1	45	4	4	2	I	1	0	1003	1	Ⴔ	cut_w_stereo_44KHz.wav
1	46	2	2	1	C	1	0	1507	0	Ⴖ	cut_l_stereo_44KHz.wav
1	47	1	1	1	C	2	1	1327	1	Ⴕ	cut_h_stereo_44KHz.wav
1	48	3	4	2	I	2	0	1188	0	Ⴉ	cut_w_stereo_44KHz.wav
1	49	2	1	0	C	1	1	961	1	Ⴖ	cut_h_stereo_44KHz.wav
1	50	1	2	0	C	1	1	1311	1	Ⴕ	cut_l_stereo_44KHz.wav
1	51	3	3	2	I	2	0	1483	0	Ⴉ	cut_g_stereo_44KHz.wav
1	52	4	3	2	I	2	0	1370	1	Ⴔ	cut_g_stereo_44KHz.wav
1	53	3	4	2	I	1	0	1063	0	Ⴉ	cut_w_stereo_44KHz.wav
1	54	4	4	2	I	1	0	1516	1	Ⴔ	cut_w_stereo_44KHz.wav
1	55	2	2	1	C	1	0	1043	0	Ⴖ	cut_l_stereo_44KHz.wav
1	56	1	1	1	C	2	1	1926	1	Ⴕ	cut_h_stereo_44KHz.wav
1	57	3	3	2	I	2	0	1506	1	Ⴉ	cut_g_stereo_44KHz.wav
1	58	4	4	2	I	0	0	0	0	Ⴔ	cut_w_stereo_44KHz.wav
1	59	1	2	0	C	1	1	1218	1	Ⴕ	cut_l_stereo_44KHz.wav
1	60	2	1	0	C	1	1	1331	1	Ⴖ	cut_h_stereo_44KHz.wav
1	61	3	4	2	I	1	0	1481	1	Ⴉ	cut_w_stereo_44KHz.wav
1	62	1	1	1	C	2	1	1534	1	Ⴕ	cut_h_stereo_44KHz.wav
1	63	4	3	2	I	2	0	1599	1	Ⴔ	cut_g_stereo_44KHz.wav
1	64	2	2	1	C	2	1	1396	1	Ⴖ	cut_l_stereo_44KHz.wav
1	65	1	1	1	C	2	1	1011	1	Ⴕ	cut_h_stereo_44KHz.wav
1	66	3	4	2	I	1	0	1232	0	Ⴉ	cut_w_stereo_44KHz.wav
1	67	2	2	1	C	2	1	1274	1	Ⴖ	cut_l_stereo_44KHz.wav
1	68	4	3	2	I	1	0	1297	0	Ⴔ	cut_g_stereo_44KHz.wav
1	69	3	3	2	I	1	0	977	0	Ⴉ	cut_g_stereo_44KHz.wav
1	70	2	1	0	C	1	1	751	1	Ⴖ	cut_h_stereo_44KHz.wav
1	71	4	4	2	I	1	0	1503	0	Ⴔ	cut_w_stereo_44KHz.wav
1	72	1	2	0	C	1	1	1190	1	Ⴕ	cut_l_stereo_44KHz.wav
1	73	4	3	2	I	2	0	1400	1	Ⴔ	cut_g_stereo_44KHz.wav
1	74	1	1	1	C	2	1	1245	1	Ⴕ	cut_h_stereo_44KHz.wav
1	75	2	1	0	C	1	1	1064	1	Ⴖ	cut_h_stereo_44KHz.wav
1	76	3	3	2	I	2	0	1151	0	Ⴉ	cut_g_stereo_44KHz.wav
1	77	2	2	1	C	2	1	1214	1	Ⴖ	cut_l_stereo_44KHz.wav
1	78	1	2	0	C	1	1	1407	1	Ⴕ	cut_l_stereo_44KHz.wav
1	79	3	4	2	I	1	0	1423	1	Ⴉ	cut_w_stereo_44KHz.wav
1	80	4	4	2	I	2	0	844	0	Ⴔ	cut_w_stereo_44KHz.wav
1	81	1	1	1	C	2	1	1058	1	Ⴕ	cut_h_stereo_44KHz.wav
1	82	4	4	2	I	2	0	833	1	Ⴔ	cut_w_stereo_44KHz.wav
1	83	3	3	2	I	2	0	1159	1	Ⴉ	cut_g_stereo_44KHz.wav
1	84	2	2	1	C	2	1	1301	1	Ⴖ	cut_l_stereo_44KHz.wav
1	85	4	3	2	I	1	0	1090	1	Ⴔ	cut_g_stereo_44KHz.wav
1	86	3	4	2	I	1	0	1247	0	Ⴉ	cut_w_stereo_44KHz.wav
1	87	1	2	0	C	1	1	1004	1	Ⴕ	cut_l_stereo_44KHz.wav
1	88	2	1	0	C	1	1	968	1	Ⴖ	cut_h_stereo_44KHz.wav
1	89	3	4	2	I	2	0	899	1	Ⴉ	cut_w_stereo_44KHz.wav
1	90	2	1	0	C	1	1	716	1	Ⴖ	cut_h_stereo_44KHz.wav
1	91	4	3	2	I	1	0	1112	1	Ⴔ	cut_g_stereo_44KHz.wav
1	92	1	2	0	C	1	1	951	1	Ⴕ	cut_l_stereo_44KHz.wav
1	93	3	3	2	I	2	0	1055	0	Ⴉ	cut_g_stereo_44KHz.wav
1	94	4	4	2	I	2	0	899	0	Ⴔ	cut_w_stereo_44KHz.wav
1	95	2	2	1	C	2	1	1141	1	Ⴖ	cut_l_stereo_44KHz.wav
1	96	1	1	1	C	2	1	1411	1	Ⴕ	cut_h_stereo_44KHz.wav
1	97	2	1	0	C	1	1	1110	1	Ⴖ	cut_h_stereo_44KHz.wav
1	98	4	3	2	I	1	0	938	1	Ⴔ	cut_g_stereo_44KHz.wav
1	99	3	4	2	I	1	0	1489	1	Ⴉ	cut_w_stereo_44KHz.wav
1	100	1	1	1	C	2	1	1114	1	Ⴕ	cut_h_stereo_44KHz.wav
1	101	3	3	2	I	2	0	1697	0	Ⴉ	cut_g_stereo_44KHz.wav
1	102	2	2	1	C	1	0	781	0	Ⴖ	cut_l_stereo_44KHz.wav
1	103	1	2	0	C	1	1	725	1	Ⴕ	cut_l_stereo_44KHz.wav
1	104	4	4	2	I	2	0	1067	0	Ⴔ	cut_w_stereo_44KHz.wav
1	105	3	4	2	I	0	0	0	0	Ⴉ	cut_w_stereo_44KHz.wav
1	106	1	1	1	C	2	1	1282	1	Ⴕ	cut_h_stereo_44KHz.wav
1	107	2	1	0	C	2	0	1244	0	Ⴖ	cut_h_stereo_44KHz.wav
1	108	4	4	2	I	2	0	936	0	Ⴔ	cut_w_stereo_44KHz.wav
1	109	2	2	1	C	1	0	814	0	Ⴖ	cut_l_stereo_44KHz.wav
1	110	4	3	2	I	1	0	884	1	Ⴔ	cut_g_stereo_44KHz.wav
1	111	1	2	0	C	1	1	896	1	Ⴕ	cut_l_stereo_44KHz.wav
1	112	3	3	2	I	1	0	1541	1	Ⴉ	cut_g_stereo_44KHz.wav
1	113	1	2	0	C	1	1	796	1	Ⴕ	cut_l_stereo_44KHz.wav
1	114	4	3	2	I	1	0	1043	1	Ⴔ	cut_g_stereo_44KHz.wav
1	115	3	3	2	I	1	0	712	1	Ⴉ	cut_g_stereo_44KHz.wav
1	116	2	1	0	C	1	1	794	1	Ⴖ	cut_h_stereo_44KHz.wav
1	117	3	4	2	I	1	0	1535	1	Ⴉ	cut_w_stereo_44KHz.wav
1	118	4	4	2	I	2	0	1253	0	Ⴔ	cut_w_stereo_44KHz.wav
1	119	1	1	1	C	2	1	1243	1	Ⴕ	cut_h_stereo_44KHz.wav
1	120	2	2	1	C	2	1	1204	1	Ⴖ	cut_l_stereo_44KHz.wav
1	121	4	3	2	I	1	0	1027	1	Ⴔ	cut_g_stereo_44KHz.wav
1	122	2	1	0	C	1	1	823	1	Ⴖ	cut_h_stereo_44KHz.wav
1	123	1	2	0	C	1	1	1166	1	Ⴕ	cut_l_stereo_44KHz.wav
1	124	3	4	2	I	1	0	1092	1	Ⴉ	cut_w_stereo_44KHz.wav
1	125	4	4	2	I	2	0	876	0	Ⴔ	cut_w_stereo_44KHz.wav
1	126	1	1	1	C	2	1	941	1	Ⴕ	cut_h_stereo_44KHz.wav
1	127	3	3	2	I	1	0	1258	1	Ⴉ	cut_g_stereo_44KHz.wav
1	128	2	2	1	C	2	1	1178	1	Ⴖ	cut_l_stereo_44KHz.wav
1	129	1	1	1	C	2	1	775	1	Ⴕ	cut_h_stereo_44KHz.wav
1	130	3	4	2	I	1	0	1149	0	Ⴉ	cut_w_stereo_44KHz.wav
1	131	4	3	2	I	1	0	1273	0	Ⴔ	cut_g_stereo_44KHz.wav
1	132	2	2	1	C	2	1	1200	1	Ⴖ	cut_l_stereo_44KHz.wav
1	133	4	4	2	I	2	0	1095	0	Ⴔ	cut_w_stereo_44KHz.wav
1	134	2	1	0	C	1	1	926	1	Ⴖ	cut_h_stereo_44KHz.wav
1	135	1	2	0	C	1	1	846	1	Ⴕ	cut_l_stereo_44KHz.wav
1	136	3	3	2	I	1	0	1277	0	Ⴉ	cut_g_stereo_44KHz.wav
1	137	2	2	1	C	1	0	1322	0	Ⴖ	cut_l_stereo_44KHz.wav
1	138	1	1	1	C	2	1	1092	1	Ⴕ	cut_h_stereo_44KHz.wav
1	139	3	3	2	I	0	0	0	0	Ⴉ	cut_g_stereo_44KHz.wav
1	140	4	4	2	I	1	0	1037	0	Ⴔ	cut_w_stereo_44KHz.wav
1	141	1	2	0	C	1	1	938	1	Ⴕ	cut_l_stereo_44KHz.wav
1	142	4	3	2	I	1	0	1195	1	Ⴔ	cut_g_stereo_44KHz.wav
1	143	2	1	0	C	1	1	693	1	Ⴖ	cut_h_stereo_44KHz.wav
1	144	3	4	2	I	1	0	1013	0	Ⴉ	cut_w_stereo_44KHz.wav
1	145	1	1	1	C	2	1	898	1	Ⴕ	cut_h_stereo_44KHz.wav
1	146	4	4	2	I	1	0	1240	0	Ⴔ	cut_w_stereo_44KHz.wav
1	147	3	3	2	I	2	0	1317	1	Ⴉ	cut_g_stereo_44KHz.wav
1	148	2	1	0	C	1	1	765	1	Ⴖ	cut_h_stereo_44KHz.wav
1	149	3	4	2	I	2	0	1065	1	Ⴉ	cut_w_stereo_44KHz.wav
1	150	2	2	1	C	2	1	1083	1	Ⴖ	cut_l_stereo_44KHz.wav
1	151	4	3	2	I	1	0	1718	1	Ⴔ	cut_g_stereo_44KHz.wav
1	152	1	2	0	C	2	0	848	0	Ⴕ	cut_l_stereo_44KHz.wav
1	153	2	1	0	C	1	1	1336	1	Ⴖ	cut_h_stereo_44KHz.wav
1	154	3	4	2	I	2	0	1338	0	Ⴉ	cut_w_stereo_44KHz.wav
1	155	4	3	2	I	1	0	951	0	Ⴔ	cut_g_stereo_44KHz.wav
1	156	1	2	0	C	1	1	977	1	Ⴕ	cut_l_stereo_44KHz.wav
1	157	3	3	2	I	1	0	1322	0	Ⴉ	cut_g_stereo_44KHz.wav
1	158	2	2	1	C	2	1	1266	1	Ⴖ	cut_l_stereo_44KHz.wav
1	159	1	1	1	C	2	1	1534	1	Ⴕ	cut_h_stereo_44KHz.wav
1	160	4	4	2	I	2	0	1630	0	Ⴔ	cut_w_stereo_44KHz.wav
1	161	2	2	1	C	2	1	886	1	Ⴖ	cut_l_stereo_44KHz.wav
1	162	4	3	2	I	2	0	1589	0	Ⴔ	cut_g_stereo_44KHz.wav
1	163	1	1	1	C	2	1	1023	1	Ⴕ	cut_h_stereo_44KHz.wav
1	164	3	3	2	I	1	0	1350	1	Ⴉ	cut_g_stereo_44KHz.wav
1	165	4	4	2	I	1	0	1483	1	Ⴔ	cut_w_stereo_44KHz.wav
1	166	1	2	0	C	1	1	1050	1	Ⴕ	cut_l_stereo_44KHz.wav
1	167	2	1	0	C	2	0	669	0	Ⴖ	cut_h_stereo_44KHz.wav
1	168	3	4	2	I	2	0	1719	0	Ⴉ	cut_w_stereo_44KHz.wav
1	169	1	2	0	C	1	1	980	1	Ⴕ	cut_l_stereo_44KHz.wav
1	170	2	1	0	C	1	1	947	1	Ⴖ	cut_h_stereo_44KHz.wav
1	171	3	3	2	I	1	0	1110	1	Ⴉ	cut_g_stereo_44KHz.wav
1	172	4	3	2	I	2	0	1270	0	Ⴔ	cut_g_stereo_44KHz.wav
1	173	3	4	2	I	1	0	916	0	Ⴉ	cut_w_stereo_44KHz.wav
1	174	1	1	1	C	2	1	1057	1	Ⴕ	cut_h_stereo_44KHz.wav
1	175	2	2	1	C	2	1	1197	1	Ⴖ	cut_l_stereo_44KHz.wav
1	176	4	4	2	I	1	0	1280	1	Ⴔ	cut_w_stereo_44KHz.wav
1	177	1	2	0	C	1	1	1094	1	Ⴕ	cut_l_stereo_44KHz.wav
1	178	3	3	2	I	2	0	1741	1	Ⴉ	cut_g_stereo_44KHz.wav
1	179	4	4	2	I	1	0	1359	0	Ⴔ	cut_w_stereo_44KHz.wav
1	180	2	1	0	C	0	0	0	0	Ⴖ	cut_h_stereo_44KHz.wav
1	181	4	3	2	I	1	0	1092	1	Ⴔ	cut_g_stereo_44KHz.wav
1	182	1	1	1	C	2	1	1063	1	Ⴕ	cut_h_stereo_44KHz.wav
1	183	3	4	2	I	2	0	1344	0	Ⴉ	cut_w_stereo_44KHz.wav
1	184	2	2	1	C	2	1	1137	1	Ⴖ	cut_l_stereo_44KHz.wav
1	185	3	4	2	I	2	0	1550	0	Ⴉ	cut_w_stereo_44KHz.wav
1	186	1	1	1	C	2	1	966	1	Ⴕ	cut_h_stereo_44KHz.wav
1	187	2	2	1	C	2	1	907	1	Ⴖ	cut_l_stereo_44KHz.wav
1	188	4	3	2	I	2	0	1298	0	Ⴔ	cut_g_stereo_44KHz.wav
1	189	3	3	2	I	2	0	1011	1	Ⴉ	cut_g_stereo_44KHz.wav
1	190	1	2	0	C	1	1	857	1	Ⴕ	cut_l_stereo_44KHz.wav
1	191	4	4	2	I	2	0	813	1	Ⴔ	cut_w_stereo_44KHz.wav
1	192	2	1	0	C	1	1	987	1	Ⴖ	cut_h_stereo_44KHz.wav
1	193	3	4	2	I	1	0	1057	0	Ⴉ	cut_w_stereo_44KHz.wav
1	194	4	3	2	I	1	0	1253	1	Ⴔ	cut_g_stereo_44KHz.wav
1	195	2	1	0	C	1	1	832	1	Ⴖ	cut_h_stereo_44KHz.wav
1	196	1	2	0	C	1	1	929	1	Ⴕ	cut_l_stereo_44KHz.wav
1	197	2	2	1	C	2	1	1342	1	Ⴖ	cut_l_stereo_44KHz.wav
1	198	3	3	2	I	1	0	1177	1	Ⴉ	cut_g_stereo_44KHz.wav
1	199	4	4	2	I	2	0	890	0	Ⴔ	cut_w_stereo_44KHz.wav
1	200	1	1	1	C	2	1	970	1	Ⴕ	cut_h_stereo_44KHz.wav
