block	trial	vStim	aStim	resp	rt	fb	iti	feedJitter	vSymbol	aFile	FBtype	stimOnset	respOnset	feedbackOnset
2	1	2	3	2	1	2189	1	1852	1592	I	A	I	w_2_2_loudCheck.wav	practice	practice	practice
2	2	1	2	2	2	1097	1	3200	1066	E	I	I	w_2_2_loudCheck.wav	practice	practice	practice
2	3	2	3	3	2	975	1	2458	1996	I	A	A	k_2_1_loudCheck.wav	practice	practice	practice
2	4	1	3	1	1	1025	1	2134	2130	E	A	E	z_2_2.wav	practice	practice	practice
2	5	2	1	1	2	1182	1	2182	1628	I	E	E	z_2_2.wav	practice	practice	practice
2	6	3	1	3	1	917	1	2350	2619	A	E	A	k_2_1_loudCheck.wav	practice	practice	practice
2	1	4	3	1	1833	0	2632	1453	zi_2_2.wav	G	Cong	7678	9511	11638
2	2	2	2	1	1294	1	2035	2035	ka_loudCheck.wav	C	Cong	15702	16996	20244
2	3	4	3	2	1206	1	2885	899	zi_2_2.wav	G	Cong	25140	26346	28559
2	4	5	6	2	1717	1	2458	2341	wa_short_2_2.wav	J	Cong	33053	34770	37909
2	5	1	2	2	1417	1	1889	1574	ka_loudCheck.wav	B	Cong	41818	43235	45913
2	6	1	1	2	1924	0	2221	1628	ki_short_2_1.wav	B	Cong	50174	52098	54339
2	7	3	4	2	1788	1	3315	1289	schl_2_1.wav	F	Cong	59707	61495	63517
2	8	2	2	1	1378	1	2639	2131	ka_loudCheck.wav	C	Cong	68166	69544	72814
2	9	3	3	1	1913	1	2786	1509	zi_2_2.wav	F	Cong	77615	79528	81659
2	10	5	5	1	1696	1	2986	1066	pf_2_1_loudCheck.wav	J	Cong	86701	88397	90285
2	11	2	2	1	1531	1	2334	1320	ka_loudCheck.wav	C	Cong	94637	96168	98480
2	12	6	5	2	2213	1	2586	1599	pf_2_1_loudCheck.wav	K	Cong	103079	105292	107198
2	13	1	1	1	1394	1	3581	1105	ki_short_2_1.wav	B	Cong	112795	114189	116420
2	14	5	6	2	1735	1	2720	1592	wa_short_2_2.wav	J	Cong	121152	122887	125263
2	15	4	4	1	1559	1	2503	2422	schl_2_1.wav	G	Cong	129789	131348	134747
2	16	6	6	1	2140	1	2925	1779	wa_short_2_2.wav	K	Cong	139694	141834	144002
2	17	3	3	1	1488	1	2954	2576	zi_2_2.wav	F	Cong	148974	150462	154067
2	18	6	5	1	1484	0	2911	2754	pf_2_1_loudCheck.wav	K	Cong	158995	160479	164259
2	19	2	1	2	1639	1	2448	1795	ki_short_2_1.wav	C	Cong	168728	170367	173032
2	20	4	3	1	1925	0	2841	2155	zi_2_2.wav	G	Cong	177892	179817	182560
2	21	5	5	1	1129	1	2671	1395	pf_2_1_loudCheck.wav	J	Cong	187255	188384	191168
2	22	1	2	2	2355	1	2010	1996	ka_loudCheck.wav	B	Cong	195199	197554	199710
2	23	6	6	0	0	2	3200	1654	wa_short_2_2.wav	K	Cong	204927	0	209117
2	24	3	4	1	1945	0	2532	2602	schl_2_1.wav	F	Cong	213660	215605	218786
2	25	1	2	2	1819	1	1738	1465	ka_loudCheck.wav	B	Cong	222548	224367	226519
2	26	5	5	1	1190	1	2269	2619	pf_2_1_loudCheck.wav	J	Cong	230805	231995	235929
2	27	3	4	1	1528	0	1927	2582	schl_2_1.wav	F	Cong	239880	241408	244978
2	28	5	6	2	2200	1	2335	2220	wa_short_2_2.wav	J	Cong	249324	251524	254083
2	29	3	3	1	1728	1	1760	1656	zi_2_2.wav	F	Cong	257851	259579	262024
2	30	1	1	1	1580	1	2195	2189	ki_short_2_1.wav	B	Cong	266227	267807	270929
2	31	2	2	1	1184	1	1852	2244	ka_loudCheck.wav	C	Cong	274821	276005	279572
2	32	6	5	2	1096	1	2881	1146	pf_2_1_loudCheck.wav	K	Cong	284471	285567	288124
2	33	2	1	2	2032	1	2678	1582	ki_short_2_1.wav	C	Cong	292823	294855	296916
2	34	6	6	1	2205	1	3387	1639	wa_short_2_2.wav	K	Cong	302319	304524	306473
2	35	2	1	2	1572	1	2466	2123	ki_short_2_1.wav	C	Cong	310948	312520	315578
2	36	4	4	1	1843	1	2836	1796	schl_2_1.wav	G	Cong	320436	322279	324751
2	37	6	6	2	1984	0	3066	1670	wa_short_2_2.wav	K	Cong	329835	331819	334025
2	38	6	5	2	1032	1	1615	2041	pf_2_1_loudCheck.wav	K	Cong	337652	338684	342205
2	39	4	4	1	1425	1	2350	2403	schl_2_1.wav	G	Cong	346577	348002	351504
2	40	5	5	1	1031	1	3114	2151	pf_2_1_loudCheck.wav	J	Cong	356642	357673	361299
2	41	3	3	0	0	2	2871	2898	zi_2_2.wav	F	Cong	366181	0	371595
2	42	1	1	1	1449	1	2182	2173	ki_short_2_1.wav	B	Cong	375787	377236	380470
2	43	4	4	1	1313	1	2670	1855	schl_2_1.wav	G	Cong	385162	386475	389552
2	44	2	1	2	1588	1	2134	2924	ki_short_2_1.wav	C	Cong	393695	395283	399127
2	45	3	4	1	2107	0	1991	2324	schl_2_1.wav	F	Cong	403135	405242	407974
2	46	5	6	2	1827	1	2219	1380	wa_short_2_2.wav	J	Cong	412216	414043	416102
2	47	4	3	2	1911	1	3740	2130	zi_2_2.wav	G	Cong	421861	423772	426501
2	48	1	2	2	1507	1	2364	1718	ka_loudCheck.wav	B	Cong	430880	432387	435108
