block	trial	vStim	aStim	resp	rt	fb	iti	feedJitter	aFile	vSymbol	LeftIsMatch	stimOnset	respOnset	feedbackOnset
1	1	2	3	2	2	7699	1	1852	1592	R	V	e_short_2_2.wav	practice	practice	practice
1	2	1	2	2	1	2518	1	3200	1066	N	R	e_short_2_2.wav	practice	practice	practice
1	3	2	3	3	2	2778	0	2458	1996	R	V	t_2_1_loudCheck.wav	practice	practice	practice
1	4	1	3	1	2	1983	1	2134	2130	N	V	a_short_2_2.wav	practice	practice	practice
1	5	2	1	1	1	1124	1	2182	1628	R	N	a_short_2_2.wav	practice	practice	practice
1	6	3	1	3	1	1590	0	2350	2619	V	N	t_2_1_loudCheck.wav	practice	practice	practice
1	1	4	3	2	1550	0	2221	899	e_long_2_2.wav	T	0	7278	8828	10714
1	2	2	1	1	1376	1	2219	1996	a_long_2_3_loudCheck.wav	P	0	14952	16328	19454
1	3	5	5	2	1369	1	2364	1628	st_2_2_loudCheck.wav	W	0	23851	25220	27989
1	4	4	3	2	1624	0	2448	2155	e_long_2_2.wav	T	0	32457	34081	37120
1	5	2	1	1	1543	1	2720	2130	a_long_2_3_loudCheck.wav	P	0	41864	43407	46529
1	6	5	6	1	2026	1	3740	2151	wö_2_2_loudCheck.wav	W	0	52318	54344	56978
1	7	3	4	1	1349	1	2881	1599	sche_2_1.wav	S	0	61904	63253	66026
1	8	6	5	2	1134	0	3387	1656	st_2_2_loudCheck.wav	X	0	71429	72563	75599
1	9	2	2	1	1203	0	2334	2123	un_short_2_1_loudCheck.wav	P	0	79975	81178	84605
1	10	3	3	2	899	1	2841	2576	e_long_2_2.wav	S	0	89468	90367	94558
1	11	5	5	2	2494	1	1760	1639	st_2_2_loudCheck.wav	W	0	98335	100829	102491
1	12	1	1	2	1434	1	2586	2244	a_long_2_3_loudCheck.wav	O	0	107086	108520	111850
1	13	2	2	1	1640	0	2836	2131	un_short_2_1_loudCheck.wav	P	0	116703	118343	121369
1	14	3	3	2	923	1	2911	1146	e_long_2_2.wav	S	0	126295	127218	129950
1	15	4	4	1	1077	0	2639	1105	sche_2_1.wav	T	0	134611	135688	138232
1	16	5	6	1	986	1	2182	1574	wö_2_2_loudCheck.wav	W	0	142427	143413	146527
1	17	4	3	2	793	0	2632	2403	e_long_2_2.wav	T	0	151183	151976	156093
1	18	6	5	2	2019	0	1852	2324	st_2_2_loudCheck.wav	X	0	159969	161988	164801
1	19	3	4	1	1542	1	2466	1380	sche_2_1.wav	S	0	169287	170829	173175
1	20	5	6	2	1386	0	3066	2341	wö_2_2_loudCheck.wav	W	0	178260	179646	183122
1	21	1	1	2	1324	1	2885	1855	a_long_2_3_loudCheck.wav	O	0	188027	189351	192401
1	22	6	6	1	1370	0	2035	2619	wö_2_2_loudCheck.wav	X	0	196444	197814	201571
1	23	4	3	2	894	0	2871	2173	e_long_2_2.wav	T	0	206465	207359	211155
1	24	3	4	2	1441	0	1927	1795	sche_2_1.wav	S	0	215104	216545	219432
1	25	6	5	2	980	0	2925	2582	st_2_2_loudCheck.wav	X	0	224375	225355	229486
1	26	3	3	2	967	1	2350	1670	e_long_2_2.wav	S	0	233847	234814	238025
1	27	5	5	1	1613	0	2986	2602	st_2_2_loudCheck.wav	W	0	243022	244635	248158
1	28	6	6	1	906	0	1889	2924	wö_2_2_loudCheck.wav	X	0	252071	252977	257532
1	29	2	1	2	1081	0	2671	1453	a_long_2_3_loudCheck.wav	P	0	262221	263302	266208
1	30	1	2	1	978	1	3581	2898	un_short_2_1_loudCheck.wav	O	0	271802	272780	277220
1	31	6	6	1	1242	0	2335	1582	wö_2_2_loudCheck.wav	X	0	281564	282806	285669
1	32	1	1	2	1702	1	3200	2189	a_long_2_3_loudCheck.wav	O	0	290885	292587	295593
1	33	3	3	2	1038	1	2269	1289	e_long_2_2.wav	S	0	299885	300923	303679
1	34	1	2	1	1641	1	2678	2220	un_short_2_1_loudCheck.wav	O	0	308368	310009	313099
1	35	3	4	1	1009	1	1738	2035	sche_2_1.wav	S	0	316845	317854	321402
1	36	2	2	1	1045	0	2503	1592	un_short_2_1_loudCheck.wav	P	0	325916	326961	330045
1	37	1	1	2	1111	1	1615	2041	a_long_2_3_loudCheck.wav	O	0	333683	334794	338236
1	38	4	4	1	2159	0	2670	2422	sche_2_1.wav	T	0	342928	345087	347869
1	39	5	5	2	1337	1	3114	1796	st_2_2_loudCheck.wav	W	0	353004	354341	357306
1	40	4	4	1	2246	0	2458	1395	sche_2_1.wav	T	0	361782	364028	365692
1	41	6	6	1	1072	0	3315	2754	wö_2_2_loudCheck.wav	X	0	371028	372100	376303
1	42	2	2	1	1345	0	1991	1320	un_short_2_1_loudCheck.wav	P	0	380315	381660	384153
1	43	4	4	2	980	1	2786	1465	sche_2_1.wav	T	0	388952	389932	392953
1	44	1	2	1	1555	1	2134	1509	un_short_2_1_loudCheck.wav	O	0	397104	398659	401120
1	45	2	1	2	1108	0	2010	1654	a_long_2_3_loudCheck.wav	P	0	405153	406261	409323
1	46	1	2	2	1557	0	2195	1718	un_short_2_1_loudCheck.wav	O	0	413528	415085	417760
1	47	6	5	2	1245	0	2954	1779	st_2_2_loudCheck.wav	X	0	422723	423968	427039
1	48	5	6	1	1053	1	2532	1066	wö_2_2_loudCheck.wav	W	0	431589	432642	435179
