block	trial	vStim	aStim	resp	rt	fb	iti	feedJitter	aFile	vSymbol	LeftIsMatch	stimOnset	respOnset	feedbackOnset
1	1	2	3	2	1	1362	1	1852	1592	R	V	R	e_short_2_2.wav	practice	practice	practice
1	2	1	2	2	2	1089	1	3200	1066	N	R	R	e_short_2_2.wav	practice	practice	practice
1	3	2	3	3	2	970	1	2458	1996	R	V	V	t_2_1_loudCheck.wav	practice	practice	practice
1	4	1	3	1	1	767	1	2134	2130	N	V	N	a_short_2_2.wav	practice	practice	practice
1	5	2	1	1	1	1921	0	2182	1628	R	N	N	a_short_2_2.wav	practice	practice	practice
1	6	3	1	3	1	778	1	2350	2619	V	N	V	t_2_1_loudCheck.wav	practice	practice	practice
1	1	4	3	2	1904	1	2986	1795	e_long_2_2.wav	T	1	8042	9946	12372
1	2	2	1	2	1944	1	1889	2582	a_long_2_3_loudCheck.wav	P	1	16279	18223	21382
1	3	5	5	2	1791	0	2350	1718	st_2_2_loudCheck.wav	W	1	25759	27550	29985
1	4	4	3	2	1410	1	1852	2173	e_long_2_2.wav	T	1	33850	35260	38547
1	5	2	1	2	1211	1	2221	2619	a_long_2_3_loudCheck.wav	P	1	42790	44001	47946
1	6	5	6	2	1994	1	2720	1395	wö_2_2_loudCheck.wav	W	1	52706	54700	56620
1	7	3	4	2	2201	1	2871	1320	sche_2_1.wav	S	1	61545	63746	65382
1	8	6	5	2	1349	1	1615	1574	st_2_2_loudCheck.wav	X	1	69009	70358	73096
1	9	2	2	2	1225	0	2671	1599	un_short_2_1_loudCheck.wav	P	1	77825	79050	81958
1	10	3	3	2	1470	0	2134	1656	e_long_2_2.wav	S	1	86108	87578	90288
1	11	5	5	1	819	1	1738	2324	st_2_2_loudCheck.wav	W	1	94035	94854	98864
1	12	1	1	1	1387	1	2182	2151	a_long_2_3_loudCheck.wav	O	1	103067	104454	107727
1	13	2	2	2	1440	0	3066	2131	un_short_2_1_loudCheck.wav	P	1	112804	114244	117456
1	14	3	3	1	1898	1	1760	2123	e_long_2_2.wav	S	1	121230	123128	125870
1	15	4	4	2	1405	0	2466	1465	sche_2_1.wav	T	1	130358	131763	134347
1	16	5	6	2	961	1	3114	1779	wö_2_2_loudCheck.wav	W	1	139479	140440	143763
1	17	4	3	1	1185	0	2035	1996	e_long_2_2.wav	T	1	147817	149002	152320
1	18	6	5	2	1265	1	2269	2898	st_2_2_loudCheck.wav	X	1	156606	157871	162026
1	19	3	4	1	1688	0	2911	1146	sche_2_1.wav	S	1	166947	168635	170619
1	20	5	6	2	1157	1	2670	1453	wö_2_2_loudCheck.wav	W	1	175310	176467	179282
1	21	1	1	1	1598	1	2219	2041	a_long_2_3_loudCheck.wav	O	1	183514	185112	188060
1	22	6	6	2	1747	0	3740	2576	wö_2_2_loudCheck.wav	X	1	193822	195569	198908
1	23	4	3	1	1080	0	2881	2341	e_long_2_2.wav	T	1	203806	204886	208670
1	24	3	4	2	1988	1	2678	1592	sche_2_1.wav	S	1	213368	215356	217471
1	25	6	5	2	1160	1	2335	1066	st_2_2_loudCheck.wav	X	1	221828	222988	225400
1	26	3	3	1	1074	1	3315	1670	e_long_2_2.wav	S	1	230733	231807	234924
1	27	5	5	1	849	1	2010	2189	st_2_2_loudCheck.wav	W	1	238945	239794	243650
1	28	6	6	1	2297	1	2954	1654	wö_2_2_loudCheck.wav	X	1	248626	250923	252814
1	29	2	1	2	1743	1	2195	2403	a_long_2_3_loudCheck.wav	P	1	257019	258762	261952
1	30	1	2	2	1489	1	2334	1639	un_short_2_1_loudCheck.wav	O	1	266310	267799	270456
1	31	6	6	2	1979	0	1991	2602	wö_2_2_loudCheck.wav	X	1	274455	276434	279576
1	32	1	1	1	1497	1	2586	2924	a_long_2_3_loudCheck.wav	O	1	284186	285683	289646
1	33	3	3	1	1527	1	2841	1509	e_long_2_2.wav	S	1	294504	296031	298527
1	34	1	2	2	1476	1	3581	1289	un_short_2_1_loudCheck.wav	O	1	304131	305607	307956
1	35	3	4	2	2262	1	2503	2244	sche_2_1.wav	S	1	312470	314732	317234
1	36	2	2	1	1825	1	2885	1855	un_short_2_1_loudCheck.wav	P	1	322136	323961	326511
1	37	1	1	1	1691	1	1927	2155	a_long_2_3_loudCheck.wav	O	1	330446	332137	335117
1	38	4	4	2	1454	0	2786	1628	sche_2_1.wav	T	1	339927	341381	344090
1	39	5	5	1	1072	1	3200	899	st_2_2_loudCheck.wav	W	1	349310	350382	352728
1	40	4	4	1	2201	1	2632	1796	sche_2_1.wav	T	1	357380	359581	361700
1	41	6	6	2	1824	0	2448	2035	wö_2_2_loudCheck.wav	X	1	366165	367989	370709
1	42	2	2	2	1744	0	2639	1380	un_short_2_1_loudCheck.wav	P	1	375359	377103	379256
1	43	4	4	1	1303	1	2532	2422	sche_2_1.wav	T	1	383807	385110	388736
1	44	1	2	2	1637	1	2458	2754	un_short_2_1_loudCheck.wav	O	1	393216	394853	398485
1	45	2	1	2	1635	1	2925	2130	a_long_2_3_loudCheck.wav	P	1	403432	405067	408074
1	46	1	2	2	1528	1	3387	1105	un_short_2_1_loudCheck.wav	O	1	413477	415005	417096
1	47	6	5	2	1053	1	2836	1582	st_2_2_loudCheck.wav	X	1	421945	422998	426046
1	48	5	6	2	1541	1	2364	2220	wö_2_2_loudCheck.wav	W	1	430426	431967	435156
