block	trial	vStim	aStim	resp	rt	fb	iti	feedJitter	aFile	vSymbol	LeftIsMatch	stimOnset	respOnset	feedbackOnset
1	1	2	3	2	2	19224	0	1852	1592	R	V	e_short_2_2.wav	practice	practice	practice
1	2	1	2	2	1	4440	0	3200	1066	N	R	e_short_2_2.wav	practice	practice	practice
1	3	2	3	3	2	2247	1	2458	1996	R	V	t_2_1_loudCheck.wav	practice	practice	practice
1	4	1	3	1	1	2064	1	2134	2130	N	V	a_short_2_2.wav	practice	practice	practice
1	5	2	1	1	2	1221	1	2182	1628	R	N	a_short_2_2.wav	practice	practice	practice
1	6	3	1	3	1	1526	1	2350	2619	V	N	t_2_1_loudCheck.wav	practice	practice	practice
1	1	4	3	1	2204	0	3387	1592	e_long_2_2.wav	T	1	8430	10634	12536
1	2	2	1	1	1530	0	2836	1066	a_long_2_3_loudCheck.wav	P	1	17395	18925	20996
1	3	5	5	1	1429	1	3740	899	st_2_2_loudCheck.wav	W	1	26788	28217	30197
1	4	4	3	1	1696	0	2720	2576	e_long_2_2.wav	T	1	34936	36632	40047
1	5	2	1	2	1451	1	2035	1628	a_long_2_3_loudCheck.wav	P	1	44099	45550	48235
1	6	5	6	1	1393	0	2786	2130	wö_2_2_loudCheck.wav	W	1	53074	54467	57739
1	7	3	4	1	2235	0	2350	1795	sche_2_1.wav	S	1	62121	64356	66423
1	8	6	5	1	1447	0	2639	1656	st_2_2_loudCheck.wav	X	1	71081	72528	75270
1	9	2	2	2	1941	0	2954	2324	un_short_2_1_loudCheck.wav	P	1	80266	82207	85107
1	10	3	3	2	2190	0	2448	1996	e_long_2_2.wav	S	1	89575	91765	94080
1	11	5	5	1	2067	1	2269	1654	st_2_2_loudCheck.wav	W	1	98365	100432	102525
1	12	1	1	2	1721	0	2334	1320	a_long_2_3_loudCheck.wav	O	1	106869	108590	110696
1	13	2	2	1	1838	1	2911	2123	un_short_2_1_loudCheck.wav	P	1	115620	117458	120253
1	14	3	3	1	2094	1	2632	1105	e_long_2_2.wav	S	1	124907	127001	128536
1	15	4	4	1	1980	1	2871	2041	sche_2_1.wav	T	1	133419	135399	137977
1	16	5	6	1	2164	0	2678	1670	wö_2_2_loudCheck.wav	W	1	142677	144841	146874
1	17	4	3	1	1361	0	3315	2189	e_long_2_2.wav	T	1	152200	153561	156926
1	18	6	5	1	1869	0	2532	2244	st_2_2_loudCheck.wav	X	1	161481	163350	166249
1	19	3	4	2	1428	1	3200	2035	sche_2_1.wav	S	1	171466	172894	176021
1	20	5	6	2	2129	1	2221	2155	wö_2_2_loudCheck.wav	W	1	180253	182382	184928
1	21	1	1	1	1862	1	2466	1599	a_long_2_3_loudCheck.wav	O	1	189417	191279	193524
1	22	6	6	1	2236	1	2219	2924	wö_2_2_loudCheck.wav	X	1	197758	199994	203205
1	23	4	3	1	2135	0	2925	2173	e_long_2_2.wav	T	1	208147	210282	212832
1	24	3	4	1	1518	0	2458	2602	sche_2_1.wav	S	1	217312	218830	222430
1	25	6	5	2	2138	1	2134	1574	st_2_2_loudCheck.wav	X	1	226588	228726	230670
1	26	3	3	1	1727	1	2335	2403	e_long_2_2.wav	S	1	235029	236756	239937
1	27	5	5	1	1504	1	2881	1380	st_2_2_loudCheck.wav	W	1	244843	246347	248729
1	28	6	6	1	1380	1	1991	2619	wö_2_2_loudCheck.wav	X	1	252740	254120	257877
1	29	2	1	1	1752	0	1615	2151	a_long_2_3_loudCheck.wav	P	1	261515	263267	266196
1	30	1	2	1	1539	0	1738	2341	un_short_2_1_loudCheck.wav	O	1	269945	271484	274808
1	31	6	6	1	2019	1	2364	2422	wö_2_2_loudCheck.wav	X	1	279192	281211	284124
1	32	1	1	1	1675	1	2885	1639	a_long_2_3_loudCheck.wav	O	1	289031	290706	293189
1	33	3	3	1	1261	1	3581	2582	e_long_2_2.wav	S	1	298779	300040	303881
1	34	1	2	1	1886	0	2670	1718	un_short_2_1_loudCheck.wav	O	1	308562	310448	312798
1	35	3	4	2	1698	1	2841	1453	sche_2_1.wav	S	1	317652	319350	321619
1	36	2	2	0	0	2	1889	1582	un_short_2_1_loudCheck.wav	P	1	325521	0	329640
1	37	1	1	1	1486	1	3114	2220	a_long_2_3_loudCheck.wav	O	1	334770	336256	339512
1	38	4	4	1	2013	1	2671	1289	sche_2_1.wav	T	1	344192	346205	347998
1	39	5	5	1	1537	1	3066	2754	st_2_2_loudCheck.wav	W	1	353075	354612	358367
1	40	4	4	2	1310	0	2010	1796	sche_2_1.wav	T	1	362398	363708	366710
1	41	6	6	1	1174	1	2586	2131	wö_2_2_loudCheck.wav	X	1	371313	372487	375981
1	42	2	2	1	1934	1	1852	2898	un_short_2_1_loudCheck.wav	P	1	379847	381781	385270
1	43	4	4	1	1562	1	2503	1465	sche_2_1.wav	T	1	389783	391345	393768
1	44	1	2	2	1124	1	2986	1855	un_short_2_1_loudCheck.wav	O	1	398771	399895	403144
1	45	2	1	1	971	0	2195	1395	a_long_2_3_loudCheck.wav	P	1	407347	408318	411255
1	46	1	2	2	1419	1	1927	1509	un_short_2_1_loudCheck.wav	O	1	415203	416622	419244
1	47	6	5	1	1577	0	1760	1146	st_2_2_loudCheck.wav	X	1	423027	424604	426690
1	48	5	6	2	1423	1	2182	1779	wö_2_2_loudCheck.wav	W	1	430893	432316	435199
