block	trial	vStim	aStim	resp	rt	fb	iti	feedJitter	aFile	vSymbol	LeftIsMatch	stimOnset	respOnset	feedbackOnset
1	1	2	3	2	1	1821	0	1852	1592	R	V	e_short_2_2.wav	practice	practice	practice
1	2	1	2	2	2	3499	0	3200	1066	N	R	e_short_2_2.wav	practice	practice	practice
1	3	2	3	3	1	873	1	2458	1996	R	V	t_2_1_loudCheck.wav	practice	practice	practice
1	4	1	3	1	2	906	1	2134	2130	N	V	a_short_2_2.wav	practice	practice	practice
1	5	2	1	1	1	823	1	2182	1628	R	N	a_short_2_2.wav	practice	practice	practice
1	6	3	1	3	2	374	1	2350	2619	V	N	t_2_1_loudCheck.wav	practice	practice	practice
1	1	4	3	2	1792	0	2670	1574	e_long_2_2.wav	T	0	7711	9503	11804
1	2	2	1	2	1112	0	2671	2422	a_long_2_3_loudCheck.wav	P	0	16499	17611	21439
1	3	5	5	2	1236	1	2350	1465	st_2_2_loudCheck.wav	W	0	25828	27064	29816
1	4	4	3	1	1334	1	2466	2924	e_long_2_2.wav	T	0	34300	35634	39731
1	5	2	1	1	1160	1	2503	1996	a_long_2_3_loudCheck.wav	P	0	44251	45411	48767
1	6	5	6	1	1007	1	2639	1639	wö_2_2_loudCheck.wav	W	0	53456	54463	57612
1	7	3	4	2	1207	0	1927	2035	sche_2_1.wav	S	0	61597	62804	66148
1	8	6	5	2	954	0	1760	2324	st_2_2_loudCheck.wav	X	0	69919	70873	74776
1	9	2	2	1	1586	0	2871	2189	un_short_2_1_loudCheck.wav	P	0	79717	81303	84440
1	10	3	3	2	1291	1	2911	2576	e_long_2_2.wav	S	0	89373	90664	94476
1	11	5	5	2	923	1	2269	2898	st_2_2_loudCheck.wav	W	0	98762	99685	104165
1	12	1	1	2	1316	1	2925	1599	a_long_2_3_loudCheck.wav	O	0	109100	110416	113212
1	13	2	2	1	1278	0	2720	1146	un_short_2_1_loudCheck.wav	P	0	117948	119226	121629
1	14	3	3	2	1771	1	2986	2754	e_long_2_2.wav	S	0	126636	128407	131908
1	15	4	4	1	1087	0	3315	2123	sche_2_1.wav	T	0	137244	138331	141888
1	16	5	6	1	867	1	2010	1395	wö_2_2_loudCheck.wav	W	0	145920	146787	149831
1	17	4	3	2	1027	0	3740	2341	e_long_2_2.wav	T	0	155591	156618	160459
1	18	6	5	1	1313	1	2678	2155	st_2_2_loudCheck.wav	X	0	165157	166470	169839
1	19	3	4	2	1476	0	2219	2131	sche_2_1.wav	S	0	174082	175558	178718
1	20	5	6	1	926	1	2836	1855	wö_2_2_loudCheck.wav	W	0	183569	184495	187959
1	21	1	1	2	1342	1	2448	1718	a_long_2_3_loudCheck.wav	O	0	192415	193757	196659
1	22	6	6	1	990	0	1852	899	wö_2_2_loudCheck.wav	X	0	200523	201513	203930
1	23	4	3	2	1420	0	2134	1795	e_long_2_2.wav	T	0	208084	209504	212387
1	24	3	4	2	1295	0	2221	2220	sche_2_1.wav	S	0	216626	217921	221367
1	25	6	5	1	1183	1	2035	1105	st_2_2_loudCheck.wav	X	0	225410	226593	229022
1	26	3	3	2	1875	1	2195	1320	e_long_2_2.wav	S	0	233229	235104	237079
1	27	5	5	2	786	1	1738	1779	st_2_2_loudCheck.wav	W	0	240830	241616	245115
1	28	6	6	2	1306	1	3581	1509	wö_2_2_loudCheck.wav	X	0	250714	252020	254743
1	29	2	1	2	952	0	2885	2602	a_long_2_3_loudCheck.wav	P	0	259651	260603	264772
1	30	1	2	1	1225	1	2335	2041	un_short_2_1_loudCheck.wav	O	0	269131	270356	273694
1	31	6	6	2	1227	1	3200	2130	wö_2_2_loudCheck.wav	X	0	278916	280143	283582
1	32	1	1	2	1123	1	3387	2403	a_long_2_3_loudCheck.wav	O	0	288984	290107	293902
1	33	3	3	2	1299	1	2954	1654	e_long_2_2.wav	S	0	298880	300179	303067
1	34	1	2	1	1449	1	3066	2173	un_short_2_1_loudCheck.wav	O	0	308144	309593	312838
1	35	3	4	2	1436	0	1889	1670	sche_2_1.wav	S	0	316749	318185	320939
1	36	2	2	1	1358	0	1615	2619	un_short_2_1_loudCheck.wav	P	0	324565	325923	329697
1	37	1	1	2	1226	1	2881	1453	a_long_2_3_loudCheck.wav	O	0	334602	335828	338562
1	38	4	4	2	1690	1	2632	1289	sche_2_1.wav	T	0	343206	344896	347002
1	39	5	5	2	1111	1	2182	1656	st_2_2_loudCheck.wav	W	0	351195	352306	355361
1	40	4	4	2	1365	1	2364	1592	sche_2_1.wav	T	0	359733	361098	363852
1	41	6	6	2	1180	1	2458	1796	wö_2_2_loudCheck.wav	X	0	368332	369512	372644
1	42	2	2	2	1565	1	2586	1628	un_short_2_1_loudCheck.wav	P	0	377247	378812	381395
1	43	4	4	2	1189	1	2334	2151	sche_2_1.wav	T	0	385749	386938	390407
1	44	1	2	1	1184	1	1991	2244	un_short_2_1_loudCheck.wav	O	0	394409	395593	399187
1	45	2	1	2	835	0	2532	1582	a_long_2_3_loudCheck.wav	P	0	403737	404572	407827
1	46	1	2	1	1032	1	2841	1066	un_short_2_1_loudCheck.wav	O	0	412684	413716	416263
1	47	6	5	1	1873	1	2786	1380	st_2_2_loudCheck.wav	X	0	421068	422941	424967
1	48	5	6	1	940	1	3114	2582	wö_2_2_loudCheck.wav	W	0	430100	431040	435204
