block	trial	vStim	aStim	resp	rt	fb	iti	feedJitter	vSymbol	aFile	FBtype	stimOnset	respOnset	feedbackOnset
1	1	2	3	2	1	3022	1	1852	1592	R	V	R	e_short_2_2.wav	practice	practice	practice
1	2	1	2	2	2	844	1	3200	1066	N	R	R	e_short_2_2.wav	practice	practice	practice
1	3	2	3	3	2	989	1	2458	1996	R	V	V	t_2_1_loudCheck.wav	practice	practice	practice
1	4	1	3	1	1	707	1	2134	2130	N	V	N	a_short_2_2.wav	practice	practice	practice
1	5	2	1	1	2	755	1	2182	1628	R	N	N	a_short_2_2.wav	practice	practice	practice
1	6	3	1	3	1	1130	1	2350	2619	V	N	V	t_2_1_loudCheck.wav	practice	practice	practice
1	1	4	3	1	1156	0	2532	1592	e_long_2_2.wav	T	Cong	7577	8733	11676
1	2	2	1	1	1396	0	2836	2576	a_long_2_3_loudCheck.wav	P	Cong	16535	17931	21630
1	3	5	5	1	1395	1	2639	2151	st_2_2_loudCheck.wav	W	Cong	26319	27714	30987
1	4	4	3	2	1882	1	1852	2131	e_long_2_2.wav	T	Cong	34850	36732	39489
1	5	2	1	2	1192	1	2720	1855	a_long_2_3_loudCheck.wav	P	Cong	44223	45415	48596
1	6	5	6	2	1512	1	2881	2619	wö_2_2_loudCheck.wav	W	Cong	53502	55014	58628
1	7	3	4	1	1281	0	1615	2035	sche_2_1.wav	S	Cong	62300	63581	66848
1	8	6	5	1	1028	0	3066	2341	st_2_2_loudCheck.wav	X	Cong	71925	72953	76787
1	9	2	2	1	1255	1	2586	1395	un_short_2_1_loudCheck.wav	P	Cong	81426	82681	85341
1	10	3	3	2	2335	0	2871	1453	e_long_2_2.wav	S	Cong	90232	92567	94202
1	11	5	5	1	1160	1	2466	2403	st_2_2_loudCheck.wav	W	Cong	98681	99841	103591
1	12	1	1	1	1634	1	3581	2898	a_long_2_3_loudCheck.wav	O	Cong	109196	110830	114614
1	13	2	2	2	2276	0	2925	1796	un_short_2_1_loudCheck.wav	P	Cong	119549	121825	123874
1	14	3	3	2	2149	0	2671	2924	e_long_2_2.wav	S	Cong	128563	130712	134005
1	15	4	4	1	1654	1	2335	2189	sche_2_1.wav	T	Cong	138357	140011	143051
1	16	5	6	2	1639	1	2632	2422	wö_2_2_loudCheck.wav	W	Cong	147706	149345	152635
1	17	4	3	1	1848	0	2334	1599	e_long_2_2.wav	T	Cong	156991	158839	161097
1	18	6	5	2	1169	1	2010	1628	st_2_2_loudCheck.wav	X	Cong	165123	166292	169266
1	19	3	4	1	1462	0	2221	1146	sche_2_1.wav	S	Cong	173507	174969	177173
1	20	5	6	2	1908	1	2986	2173	wö_2_2_loudCheck.wav	W	Cong	182180	184088	186871
1	21	1	1	1	1606	1	2678	1779	a_long_2_3_loudCheck.wav	O	Cong	191571	193177	195861
1	22	6	6	1	2280	1	3740	2244	wö_2_2_loudCheck.wav	X	Cong	201619	203899	206390
1	23	4	3	0	0	2	1991	1670	e_long_2_2.wav	T	Cong	210398	0	214603
1	24	3	4	1	1653	0	2448	1795	sche_2_1.wav	S	Cong	219062	220715	223366
1	25	6	5	2	1700	1	2350	1996	st_2_2_loudCheck.wav	X	Cong	227735	229435	232238
1	26	3	3	1	1581	1	2458	2220	e_long_2_2.wav	S	Cong	236713	238294	241448
1	27	5	5	1	1457	1	1889	1639	st_2_2_loudCheck.wav	W	Cong	245345	246802	249505
1	28	6	6	1	1351	1	2670	1656	wö_2_2_loudCheck.wav	X	Cong	254184	255535	258359
1	29	2	1	2	1472	1	3315	2754	a_long_2_3_loudCheck.wav	P	Cong	263682	265154	268973
1	30	1	2	2	1824	1	1738	2582	un_short_2_1_loudCheck.wav	O	Cong	272732	274556	277820
1	31	6	6	1	1653	1	2503	1574	wö_2_2_loudCheck.wav	X	Cong	282334	283987	286428
1	32	1	1	1	1452	1	2219	1718	a_long_2_3_loudCheck.wav	O	Cong	290672	292124	294895
1	33	3	3	1	1897	1	3114	2324	e_long_2_2.wav	S	Cong	300022	301919	304852
1	34	1	2	2	1832	1	2364	2123	un_short_2_1_loudCheck.wav	O	Cong	309236	311068	313869
1	35	3	4	2	1650	1	2035	2041	sche_2_1.wav	S	Cong	317926	319576	322491
1	36	2	2	2	2104	0	2195	1509	un_short_2_1_loudCheck.wav	P	Cong	326708	328812	330730
1	37	1	1	1	1511	1	2134	1465	a_long_2_3_loudCheck.wav	O	Cong	334887	336398	338859
1	38	4	4	1	1732	1	2954	2602	sche_2_1.wav	T	Cong	343830	345562	348949
1	39	5	5	1	1291	1	3387	1105	st_2_2_loudCheck.wav	W	Cong	354360	355651	357980
1	40	4	4	1	1952	1	2269	1654	sche_2_1.wav	T	Cong	362262	364214	366437
1	41	6	6	1	1548	1	2841	1289	wö_2_2_loudCheck.wav	X	Cong	371289	372837	375092
1	42	2	2	1	1624	1	2885	1582	un_short_2_1_loudCheck.wav	P	Cong	379987	381611	384089
1	43	4	4	1	1295	1	1927	1320	sche_2_1.wav	T	Cong	388032	389327	391868
1	44	1	2	2	2058	1	2786	1066	un_short_2_1_loudCheck.wav	O	Cong	396667	398725	400252
1	45	2	1	2	1595	1	2182	2155	a_long_2_3_loudCheck.wav	P	Cong	404452	406047	409116
1	46	1	2	2	1555	1	2911	1380	un_short_2_1_loudCheck.wav	O	Cong	414067	415622	417974
1	47	6	5	2	1943	1	1760	899	st_2_2_loudCheck.wav	X	Cong	421753	423696	425186
1	48	5	6	2	1298	1	3200	2130	wö_2_2_loudCheck.wav	W	Cong	430405	431703	435055
