block	trial	vStim	aStim	resp	rt	fb	iti	feedJitter	aFile	vSymbol	LeftIsMatch	stimOnset	respOnset	feedbackOnset
2	1	2	3	2	2	1740	1	1852	1592	I	A	w_2_2_loudCheck.wav	practice	practice	practice
2	2	1	2	2	1	936	1	3200	1066	E	I	w_2_2_loudCheck.wav	practice	practice	practice
2	3	2	3	3	1	1370	1	2458	1996	I	A	k_2_1_loudCheck.wav	practice	practice	practice
2	4	1	3	1	2	981	1	2134	2130	E	A	z_2_2.wav	practice	practice	practice
2	5	2	1	1	1	808	1	2182	1628	I	E	z_2_2.wav	practice	practice	practice
2	6	3	1	3	2	749	1	2350	2619	A	E	k_2_1_loudCheck.wav	practice	practice	practice
2	1	4	3	2	874	0	2335	1656	zi_2_2.wav	G	0	7392	8266	11554
2	2	2	2	2	953	1	2670	1453	ka_loudCheck.wav	C	0	16266	17219	20237
2	3	4	3	1	1098	1	2678	1395	zi_2_2.wav	G	0	24928	26026	28834
2	4	5	6	1	1289	1	1927	2244	wa_short_2_2.wav	J	0	32798	34087	37558
2	5	1	2	2	1104	0	1852	1582	ka_loudCheck.wav	B	0	41427	42531	45534
2	6	1	1	2	1794	1	1991	1718	ki_short_2_1.wav	B	0	49574	51368	53810
2	7	3	4	1	1565	1	2221	2619	schl_2_1.wav	F	0	58061	59626	63200
2	8	2	2	2	1420	1	3114	1639	ka_loudCheck.wav	C	0	68338	69758	72499
2	9	3	3	1	1468	0	3740	2576	zi_2_2.wav	F	0	78265	79733	83351
2	10	5	5	2	1226	1	2885	1592	pf_2_1_loudCheck.wav	J	0	88268	89494	92397
2	11	2	2	1	1418	0	2334	2924	ka_loudCheck.wav	C	0	96754	98172	102201
2	12	6	5	2	1398	0	2458	2189	pf_2_1_loudCheck.wav	K	0	106676	108074	111397
2	13	1	1	2	1301	1	2639	2035	ki_short_2_1.wav	B	0	116059	117360	120611
2	14	5	6	2	1069	0	2925	2324	wa_short_2_2.wav	J	0	125546	126615	130383
2	15	4	4	2	1454	1	3315	1289	schl_2_1.wav	G	0	135718	137172	139528
2	16	6	6	1	1689	0	2134	1795	wa_short_2_2.wav	K	0	143672	145361	147992
2	17	3	3	2	1549	1	2836	2155	zi_2_2.wav	F	0	152846	154395	157520
2	18	6	5	2	1103	0	2532	1599	pf_2_1_loudCheck.wav	K	0	162076	163179	166182
2	19	2	1	2	1397	0	1889	2754	ki_short_2_1.wav	C	0	170087	171484	175378
2	20	4	3	2	1144	0	2586	1105	zi_2_2.wav	G	0	179985	181129	183627
2	21	5	5	1	1407	0	2010	2422	pf_2_1_loudCheck.wav	J	0	187649	189056	192587
2	22	1	2	2	976	0	2632	899	ka_loudCheck.wav	B	0	197241	198217	200664
2	23	6	6	2	1621	1	2720	1380	wa_short_2_2.wav	K	0	205403	207024	209302
2	24	3	4	2	1868	0	2195	2220	schl_2_1.wav	F	0	213516	215384	218249
2	25	1	2	2	1737	0	2786	2173	ka_loudCheck.wav	B	0	223043	224780	227735
2	26	5	5	1	1766	0	2350	1670	pf_2_1_loudCheck.wav	J	0	232107	233873	236301
2	27	3	4	1	2038	1	3200	1509	schl_2_1.wav	F	0	241512	243550	245540
2	28	5	6	1	1638	1	2182	2151	wa_short_2_2.wav	J	0	249745	251383	254406
2	29	3	3	2	1493	1	2448	1320	zi_2_2.wav	F	0	258865	260358	262693
2	30	1	1	2	649	1	2466	1855	ki_short_2_1.wav	B	0	267172	267821	271551
2	31	2	2	2	1308	1	3387	2131	ka_loudCheck.wav	C	0	276947	278255	281593
2	32	6	5	1	2238	1	2364	2041	pf_2_1_loudCheck.wav	K	0	285971	288209	290538
2	33	2	1	2	1479	0	2503	2130	ki_short_2_1.wav	C	0	295063	296542	299713
2	34	6	6	2	765	1	3066	1628	wa_short_2_2.wav	K	0	304794	305559	308943
2	35	2	1	1	1054	1	2881	1796	ki_short_2_1.wav	C	0	313844	314898	318147
2	36	4	4	1	1765	0	2035	2898	schl_2_1.wav	G	0	322199	323964	327621
2	37	6	6	2	1155	1	1760	2602	wa_short_2_2.wav	K	0	331391	332546	336510
2	38	6	5	1	1029	1	3581	1779	pf_2_1_loudCheck.wav	K	0	342115	343144	346414
2	39	4	4	2	1605	1	1615	2582	schl_2_1.wav	G	0	350047	351652	355142
2	40	5	5	1	930	0	2219	1465	pf_2_1_loudCheck.wav	J	0	359372	360302	363342
2	41	3	3	2	1408	1	1738	2403	zi_2_2.wav	F	0	367098	368506	372006
2	42	1	1	2	892	1	2671	2341	ki_short_2_1.wav	B	0	376702	377594	381560
2	43	4	4	2	1342	1	2954	1066	schl_2_1.wav	G	0	386534	387876	390117
2	44	2	1	2	2169	0	2841	1574	ki_short_2_1.wav	C	0	394976	397145	399064
2	45	3	4	1	1294	1	2871	1996	schl_2_1.wav	F	0	403959	405253	408488
2	46	5	6	1	1808	1	2911	1654	wa_short_2_2.wav	J	0	413416	415224	417580
2	47	4	3	1	1023	1	2269	1146	zi_2_2.wav	G	0	421860	422883	425511
2	48	1	2	1	2134	1	2986	2123	ka_loudCheck.wav	B	0	430518	432652	435159
