block	trial	vStim	aStim	resp	rt	fb	iti	feedJitter	aFile	vSymbol	LeftIsMatch	stimOnset	respOnset	feedbackOnset
1	1	2	3	2	2	1696	1	1852	1592	R	V	e_short_2_2.wav	practice	practice	practice
1	2	1	2	2	1	1384	1	3200	1066	N	R	e_short_2_2.wav	practice	practice	practice
1	3	2	3	3	1	2344	1	2458	1996	R	V	t_2_1_loudCheck.wav	practice	practice	practice
1	4	1	3	1	2	4287	1	2134	2130	N	V	a_short_2_2.wav	practice	practice	practice
1	5	2	1	1	1	6887	1	2182	1628	R	N	a_short_2_2.wav	practice	practice	practice
1	6	3	1	3	2	1126	1	2350	2619	V	N	t_2_1_loudCheck.wav	practice	practice	practice
1	1	4	3	0	0	2	2885	1795	e_long_2_2.wav	T	0	7920	0	12251
1	2	2	1	2	1387	0	3114	1146	a_long_2_3_loudCheck.wav	P	0	17384	18771	21036
1	3	5	5	2	1754	1	2035	1796	st_2_2_loudCheck.wav	W	0	25092	26846	29395
1	4	4	3	2	1765	0	1927	1509	e_long_2_2.wav	T	0	33340	35105	37365
1	5	2	1	2	1669	0	2986	1066	a_long_2_3_loudCheck.wav	P	0	42374	44043	45957
1	6	5	6	1	1736	1	2871	1996	wö_2_2_loudCheck.wav	W	0	50847	52583	55360
1	7	3	4	2	2146	0	2720	1453	sche_2_1.wav	S	0	60096	62242	64068
1	8	6	5	1	1742	1	2269	2035	st_2_2_loudCheck.wav	X	0	68349	70091	72890
1	9	2	2	2	1236	1	2195	1670	un_short_2_1_loudCheck.wav	P	0	77096	78332	81279
1	10	3	3	2	1730	1	2466	2754	e_long_2_2.wav	S	0	85756	87486	91017
1	11	5	5	2	976	1	1852	2324	st_2_2_loudCheck.wav	W	0	94890	95866	99739
1	12	1	1	2	2103	1	2881	1105	a_long_2_3_loudCheck.wav	O	0	104640	106743	108252
1	13	2	2	2	2144	1	2503	1289	un_short_2_1_loudCheck.wav	P	0	112767	114911	116576
1	14	3	3	2	1387	1	2786	2244	e_long_2_2.wav	S	0	121373	122760	126136
1	15	4	4	1	1797	0	2670	1465	sche_2_1.wav	T	0	130823	132620	134824
1	16	5	6	1	1065	1	2911	2189	wö_2_2_loudCheck.wav	W	0	139752	140817	144451
1	17	4	3	2	1412	0	2925	1628	e_long_2_2.wav	T	0	149399	150811	153539
1	18	6	5	1	1575	1	1760	1320	st_2_2_loudCheck.wav	X	0	157319	158894	161156
1	19	3	4	1	1996	1	2639	2924	sche_2_1.wav	S	0	165808	167804	171265
1	20	5	6	1	1120	1	2954	1574	wö_2_2_loudCheck.wav	W	0	176236	177356	180344
1	21	1	1	2	1429	1	2532	1592	a_long_2_3_loudCheck.wav	O	0	184900	186329	189016
1	22	6	6	1	1142	0	2632	1599	wö_2_2_loudCheck.wav	X	0	193671	194813	197777
1	23	4	3	2	1915	0	2334	2602	e_long_2_2.wav	T	0	202127	204042	207252
1	24	3	4	2	2284	0	2219	1654	sche_2_1.wav	S	0	211495	213779	215655
1	25	6	5	1	1497	1	3200	1582	st_2_2_loudCheck.wav	X	0	220865	222362	224967
1	26	3	3	2	1618	1	2586	2151	e_long_2_2.wav	S	0	229569	231187	234256
1	27	5	5	2	1786	1	2448	1855	st_2_2_loudCheck.wav	W	0	238715	240501	243096
1	28	6	6	2	900	1	2221	1380	wö_2_2_loudCheck.wav	X	0	247325	248225	251242
1	29	2	1	2	1586	0	2335	1718	a_long_2_3_loudCheck.wav	P	0	255596	257182	259820
1	30	1	2	1	1866	1	2350	2131	un_short_2_1_loudCheck.wav	O	0	264183	266049	268821
1	31	6	6	2	1347	1	3387	2341	wö_2_2_loudCheck.wav	X	0	274222	275569	279095
1	32	1	1	2	1767	1	2182	2898	a_long_2_3_loudCheck.wav	O	0	283297	285064	288704
1	33	3	3	2	1280	1	2458	2041	e_long_2_2.wav	S	0	293172	294452	297728
1	34	1	2	1	1781	1	1991	2422	un_short_2_1_loudCheck.wav	O	0	301741	303522	306681
1	35	3	4	1	1598	1	2134	1395	sche_2_1.wav	S	0	310837	312435	314739
1	36	2	2	2	1798	1	2841	1656	un_short_2_1_loudCheck.wav	P	0	319601	321399	323771
1	37	1	1	2	995	1	2836	2576	a_long_2_3_loudCheck.wav	O	0	328615	329610	333710
1	38	4	4	2	2044	1	3581	2173	sche_2_1.wav	T	0	339308	341352	344001
1	39	5	5	2	1167	1	3315	2619	st_2_2_loudCheck.wav	W	0	349338	350505	354477
1	40	4	4	2	2086	1	3740	2220	sche_2_1.wav	T	0	360241	362327	364987
1	41	6	6	2	1187	1	3066	2582	wö_2_2_loudCheck.wav	X	0	370062	371249	375164
1	42	2	2	2	1251	1	2671	1639	un_short_2_1_loudCheck.wav	P	0	379846	381097	384003
1	43	4	4	2	1616	1	1738	2155	sche_2_1.wav	T	0	387750	389366	392411
1	44	1	2	1	1677	1	2678	2403	un_short_2_1_loudCheck.wav	O	0	397112	398789	402026
1	45	2	1	1	1659	1	2364	899	a_long_2_3_loudCheck.wav	P	0	406414	408073	409840
1	46	1	2	1	1460	1	1615	1779	un_short_2_1_loudCheck.wav	O	0	413474	414934	417766
1	47	6	5	1	1073	1	1889	2123	st_2_2_loudCheck.wav	X	0	421673	422746	426317
1	48	5	6	1	1256	1	2010	2130	wö_2_2_loudCheck.wav	W	0	430349	431605	434995
