block	trial	vStim	aStim	resp	rt	fb	iti	feedJitter	aFile	vSymbol	LeftIsMatch	stimOnset	respOnset	feedbackOnset
2	1	2	3	2	1	1770	1	1852	1592	I	A	I	w_2_2_loudCheck.wav	practice	practice	practice
2	2	1	2	2	2	1571	1	3200	1066	E	I	I	w_2_2_loudCheck.wav	practice	practice	practice
2	3	2	3	3	2	1247	1	2458	1996	I	A	A	k_2_1_loudCheck.wav	practice	practice	practice
2	4	1	3	1	1	1095	1	2134	2130	E	A	E	z_2_2.wav	practice	practice	practice
2	5	2	1	1	2	1081	1	2182	1628	I	E	E	z_2_2.wav	practice	practice	practice
2	6	3	1	3	1	2992	1	2350	2619	A	E	A	k_2_1_loudCheck.wav	practice	practice	practice
2	1	4	3	1	1325	0	1991	2041	zi_2_2.wav	G	1	7048	8373	11607
2	2	2	2	1	1679	1	2448	2924	ka_loudCheck.wav	C	1	16093	17772	21526
2	3	4	3	2	1499	1	2221	2035	zi_2_2.wav	G	1	25764	27263	30319
2	4	5	6	1	1231	0	2503	2898	wa_short_2_2.wav	J	1	34850	36081	40268
2	5	1	2	2	1409	1	3387	2155	ka_loudCheck.wav	B	1	45665	47074	50335
2	6	1	1	0	0	2	2885	1779	ki_short_2_1.wav	B	1	55276	0	59591
2	7	3	4	1	1610	0	1615	2341	schl_2_1.wav	F	1	63241	64851	68095
2	8	2	2	2	1591	0	2364	2576	ka_loudCheck.wav	C	1	72478	74069	77564
2	9	3	3	1	1030	1	2632	1670	zi_2_2.wav	F	1	82213	83243	86407
2	10	5	5	1	1862	1	3066	1380	pf_2_1_loudCheck.wav	J	1	91517	93379	95435
2	11	2	2	1	990	1	3114	1795	ka_loudCheck.wav	C	1	100568	101558	104869
2	12	6	5	1	1624	0	1889	2220	pf_2_1_loudCheck.wav	K	1	108776	110400	113517
2	13	1	1	1	2027	1	2182	1654	ki_short_2_1.wav	B	1	117707	119734	121871
2	14	5	6	1	1725	0	2836	1796	wa_short_2_2.wav	J	1	126717	128442	131048
2	15	4	4	1	2284	1	2586	1855	schl_2_1.wav	G	1	135652	137936	140044
2	16	6	6	1	1947	1	1760	1320	wa_short_2_2.wav	K	1	143812	145759	147649
2	17	3	3	1	1566	1	2334	2403	zi_2_2.wav	F	1	151996	153562	156906
2	18	6	5	1	1392	0	3315	2189	pf_2_1_loudCheck.wav	K	1	162245	163637	166954
2	19	2	1	1	1504	0	2911	1656	ki_short_2_1.wav	C	1	171888	173392	176054
2	20	4	3	2	1729	1	2195	2151	zi_2_2.wav	G	1	180257	181986	184938
2	21	5	5	1	1902	1	2219	1395	pf_2_1_loudCheck.wav	J	1	189168	191070	193069
2	22	1	2	1	1554	0	3581	2619	ka_loudCheck.wav	B	1	198670	200224	203809
2	23	6	6	1	1878	1	2010	2130	wa_short_2_2.wav	K	1	207843	209721	212505
2	24	3	4	0	0	2	2035	2173	schl_2_1.wav	F	1	216555	0	221236
2	25	1	2	1	1591	0	2269	2422	ka_loudCheck.wav	B	1	225527	227118	230452
2	26	5	5	1	1402	1	2720	1582	pf_2_1_loudCheck.wav	J	1	235196	236598	239296
2	27	3	4	1	1296	0	2986	1289	schl_2_1.wav	F	1	244298	245594	248122
2	28	5	6	1	2492	0	2841	2754	wa_short_2_2.wav	J	1	252974	255466	258241
2	29	3	3	1	1740	1	2670	2131	zi_2_2.wav	F	1	262933	264673	267582
2	30	1	1	1	1127	1	2350	2324	ki_short_2_1.wav	B	1	271947	273074	276778
2	31	2	2	1	1784	1	2639	2244	ka_loudCheck.wav	C	1	281437	283221	286198
2	32	6	5	1	1629	0	1852	1465	pf_2_1_loudCheck.wav	K	1	290067	291696	294040
2	33	2	1	1	992	0	1738	1592	ki_short_2_1.wav	C	1	297795	298787	301910
2	34	6	6	1	1385	1	2458	2602	wa_short_2_2.wav	K	1	306391	307776	311524
2	35	2	1	1	1980	0	3200	899	ki_short_2_1.wav	C	1	316749	318729	320167
2	36	4	4	1	1523	1	2925	1599	schl_2_1.wav	G	1	325111	326634	329223
2	37	6	6	2	1171	0	2786	1628	wa_short_2_2.wav	K	1	334025	335196	338172
2	38	6	5	2	1909	1	2871	1146	pf_2_1_loudCheck.wav	K	1	343062	344971	346725
2	39	4	4	1	960	1	2335	1105	schl_2_1.wav	G	1	351081	352041	354692
2	40	5	5	1	1351	1	1927	1509	pf_2_1_loudCheck.wav	J	1	358631	359982	362656
2	41	3	3	1	994	1	2671	1996	zi_2_2.wav	F	1	367350	368344	371864
2	42	1	1	1	1180	1	2532	2582	ki_short_2_1.wav	B	1	376413	377593	381519
2	43	4	4	1	2014	1	2954	1639	schl_2_1.wav	G	1	386484	388498	390640
2	44	2	1	1	1642	0	2881	1574	ki_short_2_1.wav	C	1	395529	397171	399610
2	45	3	4	2	1168	1	2466	1066	schl_2_1.wav	F	1	404100	405268	407674
2	46	5	6	1	1349	0	3740	1453	wa_short_2_2.wav	J	1	413432	414781	417395
2	47	4	3	1	1340	0	2134	1718	zi_2_2.wav	G	1	421541	422881	425767
2	48	1	2	1	1148	0	2678	2123	ka_loudCheck.wav	B	1	430458	431606	435092
