block	trial	vStim	aStim	resp	rt	fb	iti	feedJitter	aFile	vSymbol	LeftIsMatch	stimOnset	respOnset	feedbackOnset
2	1	2	3	2	2	1985	1	1852	1592	I	A	w_2_2_loudCheck.wav	practice	practice	practice
2	2	1	2	2	1	1176	1	3200	1066	E	I	w_2_2_loudCheck.wav	practice	practice	practice
2	3	2	3	3	1	1092	1	2458	1996	I	A	k_2_1_loudCheck.wav	practice	practice	practice
2	4	1	3	1	2	1058	1	2134	2130	E	A	z_2_2.wav	practice	practice	practice
2	5	2	1	1	1	1141	1	2182	1628	I	E	z_2_2.wav	practice	practice	practice
2	6	3	1	3	2	918	1	2350	2619	A	E	k_2_1_loudCheck.wav	practice	practice	practice
2	1	4	3	2	991	0	2670	2035	zi_2_2.wav	G	0	7701	8692	12255
2	2	2	2	2	1241	1	2182	1509	ka_loudCheck.wav	C	0	16447	17688	20466
2	3	4	3	1	1760	1	1927	1779	zi_2_2.wav	G	0	24416	26176	28711
2	4	5	6	2	1550	0	2448	2341	wa_short_2_2.wav	J	0	33177	34727	38026
2	5	1	2	1	1500	1	2639	1599	ka_loudCheck.wav	B	0	42685	44185	46801
2	6	1	1	2	2317	1	2219	1395	ki_short_2_1.wav	B	0	51036	53353	54953
2	7	3	4	1	2263	1	2221	2131	schl_2_1.wav	F	0	59195	61458	63846
2	8	2	2	2	1709	1	1991	2155	ka_loudCheck.wav	C	0	67851	69560	72541
2	9	3	3	0	0	2	2911	1574	zi_2_2.wav	F	0	77475	0	81576
2	10	5	5	2	2076	1	1889	2754	pf_2_1_loudCheck.wav	J	0	85489	87565	90780
2	11	2	2	2	1087	1	2586	2582	ka_loudCheck.wav	C	0	95388	96475	100490
2	12	6	5	2	2235	0	2871	1654	pf_2_1_loudCheck.wav	K	0	105372	107607	109542
2	13	1	1	2	1652	1	3066	1320	ki_short_2_1.wav	B	0	114619	116271	118476
2	14	5	6	2	2143	0	2364	1289	wa_short_2_2.wav	J	0	122853	124996	126652
2	15	4	4	1	1857	0	3200	1670	schl_2_1.wav	G	0	131863	133720	136052
2	16	6	6	2	2138	1	2335	1380	wa_short_2_2.wav	K	0	140398	142536	144301
2	17	3	3	2	1105	1	2195	2220	zi_2_2.wav	F	0	148515	149620	153248
2	18	6	5	1	1638	1	2678	1639	pf_2_1_loudCheck.wav	K	0	157934	159572	162084
2	19	2	1	1	1689	1	2632	2130	ki_short_2_1.wav	C	0	166725	168414	171362
2	20	4	3	1	1844	1	3740	1855	zi_2_2.wav	G	0	177117	178961	181482
2	21	5	5	1	1488	0	3315	2324	pf_2_1_loudCheck.wav	J	0	186806	188294	191650
2	22	1	2	1	1187	1	2269	2123	ka_loudCheck.wav	B	0	195939	197126	200568
2	23	6	6	2	1772	1	3114	2422	wa_short_2_2.wav	K	0	205704	207476	210632
2	24	3	4	0	0	2	2885	1582	schl_2_1.wav	F	0	215539	0	219640
2	25	1	2	1	1289	1	2035	1453	ka_loudCheck.wav	B	0	223691	224980	227652
2	26	5	5	2	849	1	2720	2189	pf_2_1_loudCheck.wav	J	0	232384	233233	237092
2	27	3	4	1	1153	1	2350	2173	schl_2_1.wav	F	0	241464	242617	246145
2	28	5	6	1	1866	1	1852	2041	wa_short_2_2.wav	J	0	250019	251885	254568
2	29	3	3	2	1127	1	2786	2602	zi_2_2.wav	F	0	259375	260502	264496
2	30	1	1	2	1228	1	1738	2244	ki_short_2_1.wav	B	0	268258	269486	273008
2	31	2	2	2	1492	1	3387	2619	ka_loudCheck.wav	C	0	278412	279904	283546
2	32	6	5	1	1321	1	2841	899	pf_2_1_loudCheck.wav	K	0	288411	289732	291823
2	33	2	1	1	1537	1	2010	1718	ki_short_2_1.wav	C	0	295853	297390	300086
2	34	6	6	2	1541	1	2986	1656	wa_short_2_2.wav	K	0	305085	306626	309259
2	35	2	1	1	1488	1	1760	2898	ki_short_2_1.wav	C	0	313028	314516	318443
2	36	4	4	1	1650	0	2503	2924	schl_2_1.wav	G	0	322956	324606	328400
2	37	6	6	2	1994	1	2881	2576	wa_short_2_2.wav	K	0	333298	335292	338397
2	38	6	5	1	1720	1	1615	1628	pf_2_1_loudCheck.wav	K	0	342029	343749	346186
2	39	4	4	2	1340	1	2954	1066	schl_2_1.wav	G	0	351160	352500	354743
2	40	5	5	2	993	1	3581	1592	pf_2_1_loudCheck.wav	J	0	360342	361335	364471
2	41	3	3	2	1076	1	2532	1465	zi_2_2.wav	F	0	369025	370101	372998
2	42	1	1	2	890	1	2334	1796	ki_short_2_1.wav	B	0	377349	378239	381652
2	43	4	4	2	1672	1	2671	2151	schl_2_1.wav	G	0	386341	388013	391009
2	44	2	1	1	1880	1	2458	2403	ki_short_2_1.wav	C	0	395478	397358	400397
2	45	3	4	1	1392	1	2134	1795	schl_2_1.wav	F	0	404555	405947	408858
2	46	5	6	1	1580	1	2836	1146	wa_short_2_2.wav	J	0	413712	415292	417377
2	47	4	3	1	1764	1	2925	1996	zi_2_2.wav	G	0	422323	424087	426832
2	48	1	2	1	1177	1	2466	1105	ka_loudCheck.wav	B	0	431314	432491	434927
