block	trial	vStim	aStim	resp	rt	fb	iti	feedJitter	aFile	vSymbol	LeftIsMatch	stimOnset	respOnset	feedbackOnset
2	1	2	3	2	2	1359	0	1852	1592	I	A	I	w_2_2_loudCheck.wav	practice	practice	practice
2	2	1	2	2	2	1128	1	3200	1066	E	I	I	w_2_2_loudCheck.wav	practice	practice	practice
2	3	2	3	3	2	966	1	2458	1996	I	A	A	k_2_1_loudCheck.wav	practice	practice	practice
2	4	1	3	1	1	756	1	2134	2130	E	A	E	z_2_2.wav	practice	practice	practice
2	5	2	1	1	1	1034	0	2182	1628	I	E	E	z_2_2.wav	practice	practice	practice
2	6	3	1	3	1	942	1	2350	2619	A	E	A	k_2_1_loudCheck.wav	practice	practice	practice
2	1	4	3	1	1396	0	1852	2244	zi_2_2.wav	G	1	6926	8322	11678
2	2	2	2	1	1119	1	2269	1320	ka_loudCheck.wav	C	1	15981	17100	19823
2	3	4	3	2	1139	1	2786	2341	zi_2_2.wav	G	1	24622	25761	29498
2	4	5	6	2	1390	1	2954	1582	wa_short_2_2.wav	J	1	34489	35879	38604
2	5	1	2	1	1285	0	1889	2324	ka_loudCheck.wav	B	1	42509	43794	47354
2	6	1	1	1	1233	1	3114	2422	ki_short_2_1.wav	B	1	52502	53735	57449
2	7	3	4	2	1468	1	2871	1795	schl_2_1.wav	F	1	62375	63843	66687
2	8	2	2	1	1001	1	1927	1628	ka_loudCheck.wav	C	1	70633	71634	74776
2	9	3	3	1	1356	1	2885	2602	zi_2_2.wav	F	1	79681	81037	84803
2	10	5	5	2	1161	0	2466	1395	pf_2_1_loudCheck.wav	J	1	89326	90487	93228
2	11	2	2	1	1020	1	2221	1066	ka_loudCheck.wav	C	1	97470	98490	101056
2	12	6	5	1	1090	0	2670	2403	pf_2_1_loudCheck.wav	K	1	105745	106835	110667
2	13	1	1	1	1420	1	3740	1656	ki_short_2_1.wav	B	1	116431	117851	120597
2	14	5	6	1	1044	0	2678	1718	wa_short_2_2.wav	J	1	125283	126327	129529
2	15	4	4	1	1378	1	1615	1996	schl_2_1.wav	G	1	133156	134534	137665
2	16	6	6	1	1200	1	2632	2576	wa_short_2_2.wav	K	1	142314	143514	147414
2	17	3	3	1	1290	1	2219	1796	zi_2_2.wav	F	1	151650	152940	155951
2	18	6	5	2	1247	1	2586	1574	pf_2_1_loudCheck.wav	K	1	160555	161802	164649
2	19	2	1	1	1595	0	2364	1380	ki_short_2_1.wav	C	1	169054	170649	172943
2	20	4	3	2	1445	1	2503	2924	zi_2_2.wav	G	1	177466	178911	182926
2	21	5	5	1	1050	1	2334	2189	pf_2_1_loudCheck.wav	J	1	187277	188327	191973
2	22	1	2	2	1247	1	2841	899	ka_loudCheck.wav	B	1	196837	198084	200249
2	23	6	6	1	1398	1	1760	2130	wa_short_2_2.wav	K	1	204029	205427	208676
2	24	3	4	2	1462	1	2134	2035	schl_2_1.wav	F	1	212825	214287	217384
2	25	1	2	2	1265	1	2195	2898	ka_loudCheck.wav	B	1	221590	222855	227018
2	26	5	5	1	953	1	2532	1670	pf_2_1_loudCheck.wav	J	1	231560	232513	235738
2	27	3	4	2	1384	1	3315	1453	schl_2_1.wav	F	1	241064	242448	245054
2	28	5	6	2	1355	1	2881	2131	wa_short_2_2.wav	J	1	249947	251302	254585
2	29	3	3	1	1076	1	3066	2123	zi_2_2.wav	F	1	259665	260741	264309
2	30	1	1	1	1187	1	2986	2041	ki_short_2_1.wav	B	1	269317	270504	273893
2	31	2	2	1	1191	1	3200	1639	ka_loudCheck.wav	C	1	279114	280305	283273
2	32	6	5	1	1337	0	2182	2173	pf_2_1_loudCheck.wav	K	1	287464	288801	292146
2	33	2	1	2	1432	1	2010	1592	ki_short_2_1.wav	C	1	296178	297610	300286
2	34	6	6	1	1234	1	2925	1599	wa_short_2_2.wav	K	1	305234	306468	309345
2	35	2	1	2	1351	1	2035	1146	ki_short_2_1.wav	C	1	313396	314747	317066
2	36	4	4	1	1621	1	2911	1105	schl_2_1.wav	G	1	321998	323619	325613
2	37	6	6	1	1682	1	1738	2754	wa_short_2_2.wav	K	1	329363	331045	334623
2	38	6	5	2	993	1	2350	1654	pf_2_1_loudCheck.wav	K	1	338994	339987	343156
2	39	4	4	1	1711	1	2720	2582	schl_2_1.wav	G	1	347886	349597	352987
2	40	5	5	1	713	1	2639	2619	pf_2_1_loudCheck.wav	J	1	357637	358350	362789
2	41	3	3	1	1740	1	2836	2220	zi_2_2.wav	F	1	367649	369389	372387
2	42	1	1	1	1223	1	2335	1465	ki_short_2_1.wav	B	1	376731	377954	380701
2	43	4	4	1	1245	1	2448	1855	schl_2_1.wav	G	1	385166	386411	389530
2	44	2	1	2	1492	1	1991	2151	ki_short_2_1.wav	C	1	393530	395022	398199
2	45	3	4	1	1263	0	2671	1289	schl_2_1.wav	F	1	402881	404144	406688
2	46	5	6	2	940	1	3387	1779	wa_short_2_2.wav	J	1	412085	413025	416396
2	47	4	3	2	1712	1	3581	2155	zi_2_2.wav	G	1	421995	423707	426686
2	48	1	2	2	1560	1	2458	1509	ka_loudCheck.wav	B	1	431168	432728	435192
