block	trial	vStim	aStim	resp	rt	fb	iti	feedJitter	aFile	vSymbol	LeftIsMatch	stimOnset	respOnset	feedbackOnset
1	1	2	3	2	2	6374	1	1852	1592	R	V	e_short_2_2.wav	practice	practice	practice
1	2	1	2	2	1	1123	1	3200	1066	N	R	e_short_2_2.wav	practice	practice	practice
1	3	2	3	3	1	1467	1	2458	1996	R	V	t_2_1_loudCheck.wav	practice	practice	practice
1	4	1	3	1	1	1896	0	2134	2130	N	V	a_short_2_2.wav	practice	practice	practice
1	5	2	1	1	1	2118	1	2182	1628	R	N	a_short_2_2.wav	practice	practice	practice
1	6	3	1	3	2	775	1	2350	2619	V	N	t_2_1_loudCheck.wav	practice	practice	practice
1	1	4	3	2	2473	0	1852	2924	e_long_2_2.wav	T	0	6887	9360	12319
1	2	2	1	2	1758	0	3200	1453	a_long_2_3_loudCheck.wav	P	0	17536	19294	21509
1	3	5	5	2	2054	1	2836	1289	st_2_2_loudCheck.wav	W	0	26357	28411	30165
1	4	4	3	1	1853	1	2678	2130	e_long_2_2.wav	T	0	34854	36707	39511
1	5	2	1	1	1931	1	2720	2898	a_long_2_3_loudCheck.wav	P	0	44246	46177	49663
1	6	5	6	1	1865	1	2911	1320	wö_2_2_loudCheck.wav	W	0	54584	56449	58414
1	7	3	4	0	0	2	2841	2341	sche_2_1.wav	S	0	63268	0	68139
1	8	6	5	1	2005	1	2503	2403	st_2_2_loudCheck.wav	X	0	72662	74667	77585
1	9	2	2	2	1499	1	2448	1380	un_short_2_1_loudCheck.wav	P	0	82057	83556	85946
1	10	3	3	1	2026	0	2639	2123	e_long_2_2.wav	S	0	90604	92630	95244
1	11	5	5	2	1673	1	1991	1996	st_2_2_loudCheck.wav	W	0	99257	100930	103771
1	12	1	1	0	0	2	2671	2324	a_long_2_3_loudCheck.wav	O	0	108459	0	113301
1	13	2	2	2	1409	1	2182	2173	un_short_2_1_loudCheck.wav	P	0	117503	118912	122186
1	14	3	3	2	1449	1	2885	899	e_long_2_2.wav	S	0	127093	128542	130511
1	15	4	4	1	1373	0	2221	1639	sche_2_1.wav	T	0	134752	136125	138911
1	16	5	6	1	1478	1	1760	1146	wö_2_2_loudCheck.wav	W	0	142680	144158	146343
1	17	4	3	1	2089	1	3114	2155	e_long_2_2.wav	T	0	151478	153567	156139
1	18	6	5	1	2022	1	1889	2131	st_2_2_loudCheck.wav	X	0	160051	162073	164703
1	19	3	4	2	1839	0	3581	2602	sche_2_1.wav	S	0	170298	172137	175420
1	20	5	6	1	966	1	2786	1105	wö_2_2_loudCheck.wav	W	0	180230	181196	183854
1	21	1	1	2	1513	1	3315	2244	a_long_2_3_loudCheck.wav	O	0	189181	190694	193946
1	22	6	6	2	2020	1	3066	2576	wö_2_2_loudCheck.wav	X	0	199029	201049	204126
1	23	4	3	2	1942	0	2335	1465	e_long_2_2.wav	T	0	208478	210420	212465
1	24	3	4	1	2170	1	2466	1796	sche_2_1.wav	S	0	216948	219118	221251
1	25	6	5	1	1869	1	2586	1855	st_2_2_loudCheck.wav	X	0	225855	227724	230230
1	26	3	3	2	1638	1	2334	1718	e_long_2_2.wav	S	0	234573	236211	238797
1	27	5	5	2	1462	1	1927	1654	st_2_2_loudCheck.wav	W	0	242737	244199	246907
1	28	6	6	2	1258	1	3387	1670	wö_2_2_loudCheck.wav	X	0	252305	253563	256506
1	29	2	1	1	1939	1	2881	2189	a_long_2_3_loudCheck.wav	P	0	261398	263337	266094
1	30	1	2	2	1283	0	2269	1395	un_short_2_1_loudCheck.wav	O	0	270385	271668	274286
1	31	6	6	2	1436	1	2219	1795	wö_2_2_loudCheck.wav	X	0	278526	279962	282826
1	32	1	1	1	1749	0	2670	1066	a_long_2_3_loudCheck.wav	O	0	287515	289264	291100
1	33	3	3	2	1453	1	2035	1509	e_long_2_2.wav	S	0	295153	296606	299186
1	34	1	2	1	1490	1	2986	2754	un_short_2_1_loudCheck.wav	O	0	304195	305685	309483
1	35	3	4	2	1480	0	3740	2041	sche_2_1.wav	S	0	315244	316724	319795
1	36	2	2	2	1629	1	1738	1599	un_short_2_1_loudCheck.wav	P	0	323555	325184	327660
1	37	1	1	2	2090	1	2925	2035	a_long_2_3_loudCheck.wav	O	0	332600	334690	337148
1	38	4	4	0	0	2	2010	2619	sche_2_1.wav	T	0	341169	0	346303
1	39	5	5	2	1017	1	2954	2151	st_2_2_loudCheck.wav	W	0	351281	352298	355949
1	40	4	4	2	1505	1	2350	1628	sche_2_1.wav	T	0	360310	361815	364445
1	41	6	6	2	1096	1	2364	2220	wö_2_2_loudCheck.wav	X	0	368829	369925	373559
1	42	2	2	2	1189	1	2632	1592	un_short_2_1_loudCheck.wav	P	0	378199	379388	382315
1	43	4	4	2	1079	1	2871	1582	sche_2_1.wav	T	0	387208	388287	391324
1	44	1	2	1	1253	1	2458	2422	un_short_2_1_loudCheck.wav	O	0	395798	397051	400752
1	45	2	1	2	1559	0	2532	2582	a_long_2_3_loudCheck.wav	P	0	405306	406865	410395
1	46	1	2	2	1835	0	1615	1574	un_short_2_1_loudCheck.wav	O	0	414021	415856	418125
1	47	6	5	1	1674	1	2134	1779	st_2_2_loudCheck.wav	X	0	422283	423957	426570
1	48	5	6	1	1502	1	2195	1656	wö_2_2_loudCheck.wav	W	0	430783	432285	434952
