block	trial	vStim	aStim	resp	rt	fb	iti	feedJitter	aFile	vSymbol	LeftIsMatch	stimOnset	respOnset	feedbackOnset
2	1	2	3	2	1	1843	1	1852	1592	I	A	w_2_2_loudCheck.wav	practice	practice	practice
2	2	1	2	2	2	1411	1	3200	1066	E	I	w_2_2_loudCheck.wav	practice	practice	practice
2	3	2	3	3	2	959	1	2458	1996	I	A	k_2_1_loudCheck.wav	practice	practice	practice
2	4	1	3	1	1	785	1	2134	2130	E	A	z_2_2.wav	practice	practice	practice
2	5	2	1	1	2	878	1	2182	1628	I	E	z_2_2.wav	practice	practice	practice
2	6	3	1	3	1	860	1	2350	2619	A	E	k_2_1_loudCheck.wav	practice	practice	practice
2	1	4	3	1	2009	0	3387	2244	zi_2_2.wav	G	1	8441	10450	13200
2	2	2	2	1	1161	1	2671	2035	ka_loudCheck.wav	C	1	17922	19083	22491
2	3	4	3	2	1020	1	2881	1996	zi_2_2.wav	G	1	27383	28403	31886
2	4	5	6	1	1773	0	2221	1718	wa_short_2_2.wav	J	1	36140	37913	40395
2	5	1	2	2	1394	1	2466	1320	ka_loudCheck.wav	B	1	44874	46268	48701
2	6	1	1	1	1947	1	2503	2130	ki_short_2_1.wav	B	1	53250	55197	57900
2	7	3	4	1	2350	0	2954	2576	schl_2_1.wav	F	1	62903	65253	68012
2	8	2	2	1	1325	1	2035	1146	ka_loudCheck.wav	C	1	72064	73389	75734
2	9	3	3	2	1884	0	2448	1628	zi_2_2.wav	F	1	80203	82087	84340
2	10	5	5	2	1953	0	3581	1599	pf_2_1_loudCheck.wav	J	1	89974	91927	94092
2	11	2	2	1	1348	1	1760	1066	ka_loudCheck.wav	C	1	97868	99216	101451
2	12	6	5	1	2391	0	2458	2155	pf_2_1_loudCheck.wav	K	1	105927	108318	110614
2	13	1	1	1	1841	1	2335	1670	ki_short_2_1.wav	B	1	114973	116814	119165
2	14	5	6	1	1575	0	2010	1779	wa_short_2_2.wav	J	1	123186	124761	127481
2	15	4	4	0	0	2	2639	2220	schl_2_1.wav	G	1	132138	0	136891
2	16	6	6	1	1433	1	2925	1654	wa_short_2_2.wav	K	1	141824	143257	145991
2	17	3	3	1	1550	1	1927	1592	zi_2_2.wav	F	1	149929	151479	154036
2	18	6	5	2	1597	1	2911	2754	pf_2_1_loudCheck.wav	K	1	158970	160567	164234
2	19	2	1	2	2012	1	2269	2123	ki_short_2_1.wav	C	1	168524	170536	173169
2	20	4	3	1	2257	0	2219	899	zi_2_2.wav	G	1	177411	179668	180815
2	21	5	5	2	1854	0	2836	1795	pf_2_1_loudCheck.wav	J	1	185671	187525	189984
2	22	1	2	2	1707	1	1738	2602	ka_loudCheck.wav	B	1	193741	195448	198849
2	23	6	6	1	1747	1	2678	2619	wa_short_2_2.wav	K	1	203551	205298	208681
2	24	3	4	1	2453	0	2632	2173	schl_2_1.wav	F	1	213337	215790	218033
2	25	1	2	2	1431	1	3740	1453	ka_loudCheck.wav	B	1	223812	225243	227791
2	26	5	5	1	1657	1	2195	2324	pf_2_1_loudCheck.wav	J	1	231999	233656	236853
2	27	3	4	0	0	2	2334	1855	schl_2_1.wav	F	1	241207	0	245569
2	28	5	6	1	1548	0	3315	1395	wa_short_2_2.wav	J	1	250892	252440	254807
2	29	3	3	1	1857	1	2885	2341	zi_2_2.wav	F	1	259713	261570	264574
2	30	1	1	1	1762	1	2841	1105	ki_short_2_1.wav	B	1	269435	271197	273053
2	31	2	2	1	1361	1	2986	1380	ka_loudCheck.wav	C	1	278052	279413	281949
2	32	6	5	2	1627	1	2364	1574	pf_2_1_loudCheck.wav	K	1	286333	287960	290417
2	33	2	1	2	1716	1	1852	2582	ki_short_2_1.wav	C	1	294293	296009	299383
2	34	6	6	2	2075	0	1889	1509	wa_short_2_2.wav	K	1	303283	305358	307329
2	35	2	1	2	1736	1	2182	1639	ki_short_2_1.wav	C	1	311534	313270	315699
2	36	4	4	2	1920	0	2670	2924	schl_2_1.wav	G	1	320378	322298	325818
2	37	6	6	1	1563	1	2586	2041	wa_short_2_2.wav	K	1	330424	331987	334982
2	38	6	5	2	1880	1	3114	2898	pf_2_1_loudCheck.wav	K	1	340120	342000	345541
2	39	4	4	1	1386	1	2532	1582	schl_2_1.wav	G	1	350082	351468	354172
2	40	5	5	1	1041	1	2350	1289	pf_2_1_loudCheck.wav	J	1	358538	359579	362335
2	41	3	3	1	1637	1	1615	1656	zi_2_2.wav	F	1	365960	367597	370146
2	42	1	1	2	1823	0	2720	1796	ki_short_2_1.wav	B	1	374874	376697	379205
2	43	4	4	1	1576	1	1991	2131	schl_2_1.wav	G	1	383214	384790	387863
2	44	2	1	2	1372	1	3200	2151	ki_short_2_1.wav	C	1	393078	394450	397748
2	45	3	4	2	1846	1	3066	1465	schl_2_1.wav	F	1	402825	404671	406811
2	46	5	6	2	2331	1	2134	2422	wa_short_2_2.wav	J	1	410962	413293	415891
2	47	4	3	2	1610	1	2786	2189	zi_2_2.wav	G	1	420699	422309	425407
2	48	1	2	2	1234	1	2871	2403	ka_loudCheck.wav	B	1	430301	431535	435221
