block	trial	vStim	aStim	resp	rt	fb	iti	feedJitter	aFile	vSymbol	LeftIsMatch	stimOnset	respOnset	feedbackOnset
1	1	2	3	2	1	3283	1	1852	1592	R	V	e_short_2_2.wav	practice	practice	practice
1	2	1	2	2	1	5827	0	3200	1066	N	R	e_short_2_2.wav	practice	practice	practice
1	3	2	3	3	2	1034	1	2458	1996	R	V	t_2_1_loudCheck.wav	practice	practice	practice
1	4	1	3	1	1	1099	1	2134	2130	N	V	a_short_2_2.wav	practice	practice	practice
1	5	2	1	1	1	1788	0	2182	1628	R	N	a_short_2_2.wav	practice	practice	practice
1	6	3	1	3	2	916	0	2350	2619	V	N	t_2_1_loudCheck.wav	practice	practice	practice
1	1	4	3	1	2079	0	2335	1656	e_long_2_2.wav	T	1	7366	9445	11527
1	2	2	1	2	2105	1	2786	2189	a_long_2_3_loudCheck.wav	P	1	16322	18427	21030
1	3	5	5	1	1240	1	2350	1996	st_2_2_loudCheck.wav	W	1	25402	26642	29906
1	4	4	3	2	1744	1	2134	899	e_long_2_2.wav	T	1	34056	35800	37463
1	5	2	1	1	1612	0	3200	2130	a_long_2_3_loudCheck.wav	P	1	42682	44294	47332
1	6	5	6	2	1148	1	2182	1592	wö_2_2_loudCheck.wav	W	1	51529	52677	55647
1	7	3	4	1	1804	0	2836	1574	sche_2_1.wav	S	1	60506	62310	64599
1	8	6	5	2	1383	1	2466	1465	st_2_2_loudCheck.wav	X	1	69089	70472	73061
1	9	2	2	1	1775	1	1852	1795	un_short_2_1_loudCheck.wav	P	1	76930	78705	81233
1	10	3	3	2	2337	0	2881	2244	e_long_2_2.wav	S	1	86133	88470	90884
1	11	5	5	1	1808	1	2532	2898	st_2_2_loudCheck.wav	W	1	95433	97241	100855
1	12	1	1	1	1807	1	2871	2131	a_long_2_3_loudCheck.wav	O	1	105736	107543	110384
1	13	2	2	2	2168	0	2911	1718	un_short_2_1_loudCheck.wav	P	1	115310	117478	119554
1	14	3	3	1	2112	1	2671	1654	e_long_2_2.wav	S	1	124238	126350	128410
1	15	4	4	1	1473	1	2035	1779	sche_2_1.wav	T	1	132455	133928	136758
1	16	5	6	2	1184	1	1615	1395	wö_2_2_loudCheck.wav	W	1	140391	141575	144299
1	17	4	3	1	2231	0	2720	2602	e_long_2_2.wav	T	1	149040	151271	154160
1	18	6	5	2	1943	1	2639	1453	st_2_2_loudCheck.wav	X	1	158824	160767	162810
1	19	3	4	1	1724	0	3387	2619	sche_2_1.wav	S	1	168209	169933	173343
1	20	5	6	2	1219	1	2954	1639	wö_2_2_loudCheck.wav	W	1	178321	179540	182493
1	21	1	1	1	1986	1	3114	2403	a_long_2_3_loudCheck.wav	O	1	187616	189602	192542
1	22	6	6	2	1229	0	2334	2123	wö_2_2_loudCheck.wav	X	1	196900	198129	201529
1	23	4	3	1	2266	0	2986	1066	e_long_2_2.wav	T	1	206538	208804	210122
1	24	3	4	0	0	2	2221	2041	sche_2_1.wav	S	1	214361	0	218939
1	25	6	5	1	2247	0	2269	1146	st_2_2_loudCheck.wav	X	1	223229	225476	226880
1	26	3	3	1	1527	1	2632	1599	e_long_2_2.wav	S	1	231534	233061	235640
1	27	5	5	1	1423	1	3066	2155	st_2_2_loudCheck.wav	W	1	240722	242145	245397
1	28	6	6	2	1149	0	2670	2576	wö_2_2_loudCheck.wav	X	1	250091	251240	255186
1	29	2	1	1	1245	0	3315	2924	a_long_2_3_loudCheck.wav	P	1	260518	261763	265962
1	30	1	2	1	2046	0	2678	1796	un_short_2_1_loudCheck.wav	O	1	270657	272703	274964
1	31	6	6	1	1618	1	2586	2151	wö_2_2_loudCheck.wav	X	1	279568	281186	284239
1	32	1	1	1	1890	1	2010	2341	a_long_2_3_loudCheck.wav	O	1	288260	290150	293116
1	33	3	3	1	1525	1	1760	1670	e_long_2_2.wav	S	1	296896	298421	301083
1	34	1	2	2	2088	1	1889	2220	un_short_2_1_loudCheck.wav	O	1	304983	307071	309724
1	35	3	4	2	1839	1	2364	2754	sche_2_1.wav	S	1	314096	315935	319360
1	36	2	2	1	2019	1	3740	2035	un_short_2_1_loudCheck.wav	P	1	325121	327140	329683
1	37	1	1	1	2470	1	2458	2422	a_long_2_3_loudCheck.wav	O	1	334152	336622	339089
1	38	4	4	1	1850	1	2195	2324	sche_2_1.wav	T	1	343306	345156	348143
1	39	5	5	1	1284	1	2841	1380	st_2_2_loudCheck.wav	W	1	353004	354288	356914
1	40	4	4	1	1143	1	2885	1582	sche_2_1.wav	T	1	361818	362961	365920
1	41	6	6	2	1858	0	2503	1855	wö_2_2_loudCheck.wav	X	1	370439	372297	374814
1	42	2	2	1	1925	1	1738	2582	un_short_2_1_loudCheck.wav	P	1	378561	380486	383648
1	43	4	4	1	1041	1	2219	1289	sche_2_1.wav	T	1	387878	388919	391690
1	44	1	2	1	2172	0	1927	1509	un_short_2_1_loudCheck.wav	O	1	395627	397799	399652
1	45	2	1	0	0	2	2448	2173	a_long_2_3_loudCheck.wav	P	1	404123	0	408805
1	46	1	2	1	1587	0	2925	1628	un_short_2_1_loudCheck.wav	O	1	413752	415339	417909
1	47	6	5	2	2342	1	3581	1105	st_2_2_loudCheck.wav	X	1	423510	425852	427151
1	48	5	6	2	1679	1	1991	1320	wö_2_2_loudCheck.wav	W	1	431155	432834	434993
