block	trial	vStim	aStim	resp	rt	fb	iti	feedJitter	aFile	vSymbol	LeftIsMatch	stimOnset	respOnset	feedbackOnset
1	1	2	3	2	2	2151	0	1852	1592	R	V	R	e_short_2_2.wav	practice	practice	practice
1	2	1	2	2	2	1028	1	3200	1066	N	R	R	e_short_2_2.wav	practice	practice	practice
1	3	2	3	3	2	1600	1	2458	1996	R	V	V	t_2_1_loudCheck.wav	practice	practice	practice
1	4	1	3	1	1	2278	1	2134	2130	N	V	N	a_short_2_2.wav	practice	practice	practice
1	5	2	1	1	2	2447	1	2182	1628	R	N	N	a_short_2_2.wav	practice	practice	practice
1	6	3	1	3	2	1764	0	2350	2619	V	N	V	t_2_1_loudCheck.wav	practice	practice	practice
1	1	4	3	0	0	2	2841	2131	e_long_2_2.wav	T	0	7895	0	12556
1	2	2	1	2	1960	0	3200	2576	a_long_2_3_loudCheck.wav	P	0	17770	19730	22866
1	3	5	5	2	1317	1	2678	1509	st_2_2_loudCheck.wav	W	0	27577	28894	31597
1	4	4	3	2	2084	0	2720	2220	e_long_2_2.wav	T	0	36340	38424	41095
1	5	2	1	2	1932	0	2632	1582	a_long_2_3_loudCheck.wav	P	0	45735	47667	49824
1	6	5	6	2	1385	0	2195	1654	wö_2_2_loudCheck.wav	W	0	54069	55454	58236
1	7	3	4	2	1794	0	3066	1795	sche_2_1.wav	S	0	63345	65139	67678
1	8	6	5	2	1679	0	2335	1996	st_2_2_loudCheck.wav	X	0	72031	73710	76550
1	9	2	2	2	1987	1	2671	2341	un_short_2_1_loudCheck.wav	P	0	81271	83258	86146
1	10	3	3	1	2378	0	2035	2754	e_long_2_2.wav	S	0	90201	92579	95479
1	11	5	5	2	2254	1	3387	1718	st_2_2_loudCheck.wav	W	0	100887	103141	105120
1	12	1	1	2	1653	1	1991	2403	a_long_2_3_loudCheck.wav	O	0	109124	110777	114045
1	13	2	2	2	1869	1	2670	1656	un_short_2_1_loudCheck.wav	P	0	118739	120608	122930
1	14	3	3	2	1924	1	2911	899	e_long_2_2.wav	S	0	127850	129774	131259
1	15	4	4	2	2202	1	2639	1628	sche_2_1.wav	T	0	135917	138119	140078
1	16	5	6	0	0	2	3581	1855	wö_2_2_loudCheck.wav	W	0	145679	0	150054
1	17	4	3	2	1727	0	2836	2244	e_long_2_2.wav	T	0	154899	156626	159661
1	18	6	5	1	1805	1	2334	1066	st_2_2_loudCheck.wav	X	0	164013	165818	167585
1	19	3	4	2	1477	0	2269	2035	sche_2_1.wav	S	0	171873	173350	176413
1	20	5	6	2	1286	0	2219	1465	wö_2_2_loudCheck.wav	W	0	180643	181929	184613
1	21	1	1	2	2238	1	2925	2041	a_long_2_3_loudCheck.wav	O	0	189556	191794	194109
1	22	6	6	1	1943	0	1889	1796	wö_2_2_loudCheck.wav	X	0	198020	199963	202353
1	23	4	3	0	0	2	2134	1289	e_long_2_2.wav	T	0	206504	0	210301
1	24	3	4	2	1505	0	2364	2602	sche_2_1.wav	S	0	214676	216181	219788
1	25	6	5	2	1822	0	2871	2155	st_2_2_loudCheck.wav	X	0	224683	226505	229355
1	26	3	3	1	2005	0	1760	1146	e_long_2_2.wav	S	0	233138	235143	236801
1	27	5	5	2	1518	1	1738	1105	st_2_2_loudCheck.wav	W	0	240560	242078	244171
1	28	6	6	1	2333	0	3315	1779	wö_2_2_loudCheck.wav	X	0	249498	251831	253815
1	29	2	1	2	1367	0	2532	1670	a_long_2_3_loudCheck.wav	P	0	258365	259732	262542
1	30	1	2	1	1853	1	3740	1395	un_short_2_1_loudCheck.wav	O	0	268293	270146	272215
1	31	6	6	2	1335	1	2448	2582	wö_2_2_loudCheck.wav	X	0	276684	278019	281774
1	32	1	1	2	1702	1	2954	1453	a_long_2_3_loudCheck.wav	O	0	286739	288441	290726
1	33	3	3	2	1949	1	2986	2619	e_long_2_2.wav	S	0	295724	297673	300878
1	34	1	2	2	2160	0	2786	1574	un_short_2_1_loudCheck.wav	O	0	305687	307847	309797
1	35	3	4	1	1553	1	1852	2422	sche_2_1.wav	S	0	313673	315226	318603
1	36	2	2	2	1793	1	2885	2151	un_short_2_1_loudCheck.wav	P	0	323510	325303	328180
1	37	1	1	2	1107	1	2182	1320	a_long_2_3_loudCheck.wav	O	0	332373	333480	336202
1	38	4	4	2	2031	1	2881	2173	sche_2_1.wav	T	0	341096	343127	345793
1	39	5	5	2	2160	1	2586	1599	st_2_2_loudCheck.wav	W	0	350401	352561	354520
1	40	4	4	2	2118	1	2503	2123	sche_2_1.wav	T	0	359039	361157	363698
1	41	6	6	2	2018	1	2466	1639	wö_2_2_loudCheck.wav	X	0	368187	370205	372333
1	42	2	2	2	1455	1	2010	2130	un_short_2_1_loudCheck.wav	P	0	376352	377807	380997
1	43	4	4	2	1058	1	1615	2324	sche_2_1.wav	T	0	384628	385686	389481
1	44	1	2	1	2113	1	3114	2189	un_short_2_1_loudCheck.wav	O	0	394615	396728	399310
1	45	2	1	2	1030	0	2221	1380	a_long_2_3_loudCheck.wav	P	0	403554	404584	407454
1	46	1	2	1	1359	1	2458	2898	un_short_2_1_loudCheck.wav	O	0	411931	413290	417361
1	47	6	5	1	1890	1	1927	2924	st_2_2_loudCheck.wav	X	0	421298	423188	426738
1	48	5	6	1	1634	1	2350	1592	wö_2_2_loudCheck.wav	W	0	431105	432739	435204
