block	trial	vStim	aStim	resp	rt	fb	iti	feedJitter	aFile	vSymbol	LeftIsMatch	stimOnset	respOnset	feedbackOnset
2	1	2	3	2	2	1494	1	1852	1592	I	A	w_2_2_loudCheck.wav	practice	practice	practice
2	2	1	2	2	1	931	1	3200	1066	E	I	w_2_2_loudCheck.wav	practice	practice	practice
2	3	2	3	3	1	1578	1	2458	1996	I	A	k_2_1_loudCheck.wav	practice	practice	practice
2	4	1	3	1	2	1632	1	2134	2130	E	A	z_2_2.wav	practice	practice	practice
2	5	2	1	1	1	914	1	2182	1628	I	E	z_2_2.wav	practice	practice	practice
2	6	3	1	3	2	1587	1	2350	2619	A	E	k_2_1_loudCheck.wav	practice	practice	practice
2	1	4	3	2	1603	0	3066	1796	zi_2_2.wav	G	0	8124	9727	12441
2	2	2	2	1	946	0	3581	2151	ka_loudCheck.wav	C	0	18073	19019	22744
2	3	4	3	1	1445	1	2639	2173	zi_2_2.wav	G	0	27393	28838	32100
2	4	5	6	2	1482	0	1615	2924	wa_short_2_2.wav	J	0	35753	37235	41190
2	5	1	2	2	1243	0	2532	1320	ka_loudCheck.wav	B	0	45739	46982	49583
2	6	1	1	2	1915	1	2632	1639	ki_short_2_1.wav	B	0	54261	56176	58408
2	7	3	4	1	1230	1	2269	1066	schl_2_1.wav	F	0	62719	63949	66290
2	8	2	2	1	1302	0	2334	1654	ka_loudCheck.wav	C	0	70642	71944	74820
2	9	3	3	2	1913	1	2786	1670	zi_2_2.wav	F	0	79616	81529	83822
2	10	5	5	1	1373	0	2503	2131	pf_2_1_loudCheck.wav	J	0	88351	89724	93003
2	11	2	2	2	1207	1	1889	2041	ka_loudCheck.wav	C	0	96907	98114	101485
2	12	6	5	1	1668	1	1738	2754	pf_2_1_loudCheck.wav	K	0	105244	106912	110504
2	13	1	1	2	1318	1	2871	2244	ki_short_2_1.wav	B	0	115396	116714	120157
2	14	5	6	1	1650	1	2954	2619	wa_short_2_2.wav	J	0	125129	126779	130281
2	15	4	4	1	1816	0	3315	2220	schl_2_1.wav	G	0	135620	137436	140360
2	16	6	6	2	970	1	2195	1779	wa_short_2_2.wav	K	0	144563	145533	148855
2	17	3	3	2	1239	1	3740	2130	zi_2_2.wav	F	0	154613	155852	159270
2	18	6	5	2	1663	0	1760	2123	pf_2_1_loudCheck.wav	K	0	163045	164708	167685
2	19	2	1	1	1269	1	2881	2422	ki_short_2_1.wav	C	0	172589	173858	177517
2	20	4	3	2	1253	0	2134	1628	zi_2_2.wav	G	0	181673	182926	185809
2	21	5	5	1	1652	0	2885	2189	pf_2_1_loudCheck.wav	J	0	190714	192366	195439
2	22	1	2	2	2102	0	2986	1105	ka_loudCheck.wav	B	0	200447	202549	204070
2	23	6	6	2	1500	1	1927	1465	wa_short_2_2.wav	K	0	208010	209510	211990
2	24	3	4	1	1570	1	2841	2155	schl_2_1.wav	F	0	216849	218419	221517
2	25	1	2	1	2015	1	2925	1855	ka_loudCheck.wav	B	0	226466	228481	230833
2	26	5	5	2	1719	1	2350	1453	pf_2_1_loudCheck.wav	J	0	235192	236911	239152
2	27	3	4	1	2091	1	2670	1146	schl_2_1.wav	F	0	243834	245925	247516
2	28	5	6	1	1567	1	2035	1996	wa_short_2_2.wav	J	0	251572	253139	256092
2	29	3	3	2	1082	1	2182	1289	zi_2_2.wav	F	0	260291	261373	264089
2	30	1	1	2	1488	1	2836	2403	ki_short_2_1.wav	B	0	268936	270424	273874
2	31	2	2	2	1819	1	1852	1718	ka_loudCheck.wav	C	0	277750	279569	281993
2	32	6	5	1	1640	1	2671	1795	pf_2_1_loudCheck.wav	K	0	286676	288316	291006
2	33	2	1	1	2233	1	3200	2324	ki_short_2_1.wav	C	0	296225	298458	301085
2	34	6	6	0	0	2	2221	1509	wa_short_2_2.wav	K	0	305326	0	309372
2	35	2	1	1	1145	1	2720	1582	ki_short_2_1.wav	C	0	314115	315260	318215
2	36	4	4	0	0	2	2458	1599	schl_2_1.wav	G	0	322689	0	326801
2	37	6	6	1	1006	0	2448	2898	wa_short_2_2.wav	K	0	331267	332273	336674
2	38	6	5	1	1516	1	2678	2341	pf_2_1_loudCheck.wav	K	0	341362	342878	346214
2	39	4	4	2	1317	1	2219	899	schl_2_1.wav	G	0	350453	351770	353857
2	40	5	5	2	937	1	3114	2576	pf_2_1_loudCheck.wav	J	0	358991	359928	364073
2	41	3	3	2	1068	1	2010	1380	zi_2_2.wav	F	0	368096	369164	371995
2	42	1	1	2	1374	1	2364	1395	ki_short_2_1.wav	B	0	376379	377753	380284
2	43	4	4	2	1476	1	2911	1592	schl_2_1.wav	G	0	385215	386691	389317
2	44	2	1	1	1741	1	2586	2582	ki_short_2_1.wav	C	0	393926	395667	399028
2	45	3	4	1	933	1	2466	1656	schl_2_1.wav	F	0	403505	404438	407668
2	46	5	6	1	808	1	1991	1574	wa_short_2_2.wav	J	0	411668	412476	415760
2	47	4	3	2	1471	0	3387	2602	zi_2_2.wav	G	0	421171	422642	426288
2	48	1	2	1	1193	1	2335	2035	ka_loudCheck.wav	B	0	430647	431840	435188
