block	trial	vStim	aStim	resp	rt	fb	iti	feedJitter	aFile	vSymbol	LeftIsMatch	stimOnset	respOnset	feedbackOnset
2	1	2	3	2	2	2478	0	1852	1592	I	A	I	w_2_2_loudCheck.wav	practice	practice	practice
2	2	1	2	2	1	1630	0	3200	1066	E	I	I	w_2_2_loudCheck.wav	practice	practice	practice
2	3	2	3	3	1	5960	0	2458	1996	I	A	A	k_2_1_loudCheck.wav	practice	practice	practice
2	4	1	3	1	2	895	0	2134	2130	E	A	E	z_2_2.wav	practice	practice	practice
2	5	2	1	1	1	1722	0	2182	1628	I	E	E	z_2_2.wav	practice	practice	practice
2	6	3	1	3	2	1054	0	2350	2619	A	E	A	k_2_1_loudCheck.wav	practice	practice	practice
2	1	4	3	2	1901	0	2678	1380	zi_2_2.wav	G	0	7731	9632	11622
2	2	2	2	2	1959	1	2195	1639	ka_loudCheck.wav	C	0	15869	17828	20022
2	3	4	3	0	0	2	2221	1105	zi_2_2.wav	G	0	24252	0	27893
2	4	5	6	2	1526	0	3066	2173	wa_short_2_2.wav	J	0	32988	34514	37682
2	5	1	2	2	1513	0	2458	2341	ka_loudCheck.wav	B	0	42162	43675	47018
2	6	1	1	2	1637	1	1889	1795	ki_short_2_1.wav	B	0	50943	52580	55243
2	7	3	4	2	1943	0	2350	1670	schl_2_1.wav	F	0	59645	61588	63822
2	8	2	2	2	1358	1	2269	2035	ka_loudCheck.wav	C	0	68102	69460	72659
2	9	3	3	2	1688	1	2871	1453	zi_2_2.wav	F	0	77541	79229	81511
2	10	5	5	0	0	2	3740	1592	pf_2_1_loudCheck.wav	J	0	87280	0	91382
2	11	2	2	2	890	1	2448	2422	ka_loudCheck.wav	C	0	95853	96743	100783
2	12	6	5	2	1083	0	2586	1599	pf_2_1_loudCheck.wav	K	0	105391	106474	109510
2	13	1	1	2	1069	1	2182	2924	ki_short_2_1.wav	B	0	113708	114777	119141
2	14	5	6	2	1431	0	2335	1996	wa_short_2_2.wav	J	0	123493	124924	127995
2	15	4	4	1	1840	0	2466	2151	schl_2_1.wav	G	0	132478	134318	137136
2	16	6	6	2	2130	1	1760	1654	wa_short_2_2.wav	K	0	140907	143037	145078
2	17	3	3	2	1835	1	2639	1320	zi_2_2.wav	F	0	149727	151562	153564
2	18	6	5	2	1768	0	1615	1289	pf_2_1_loudCheck.wav	K	0	157191	158959	160994
2	19	2	1	1	1290	1	2836	2244	ki_short_2_1.wav	C	0	165841	167131	170603
2	20	4	3	1	2082	1	1991	2189	zi_2_2.wav	G	0	174612	176694	179335
2	21	5	5	1	1527	0	1738	2220	pf_2_1_loudCheck.wav	J	0	183096	184623	187822
2	22	1	2	1	1314	1	2364	2155	ka_loudCheck.wav	B	0	192194	193508	196859
2	23	6	6	1	1730	0	1927	1574	wa_short_2_2.wav	K	0	200809	202539	204916
2	24	3	4	1	2161	1	2881	2131	schl_2_1.wav	F	0	209821	211982	214459
2	25	1	2	1	1222	1	2885	1718	ka_loudCheck.wav	B	0	219358	220580	223612
2	26	5	5	2	2149	1	3114	1146	pf_2_1_loudCheck.wav	J	0	228739	230888	232391
2	27	3	4	2	1909	0	2035	1628	schl_2_1.wav	F	0	236447	238356	240599
2	28	5	6	1	1383	1	3581	1465	wa_short_2_2.wav	J	0	246200	247583	250201
2	29	3	3	2	1560	1	3387	1779	zi_2_2.wav	F	0	255605	257165	259899
2	30	1	1	2	1339	1	2841	2582	ki_short_2_1.wav	B	0	264758	266097	269870
2	31	2	2	2	1489	1	2334	1509	ka_loudCheck.wav	C	0	274232	275721	278247
2	32	6	5	1	1421	1	2986	2898	pf_2_1_loudCheck.wav	K	0	283256	284677	288672
2	33	2	1	1	1583	1	3315	2041	ki_short_2_1.wav	C	0	293997	295580	298575
2	34	6	6	2	2089	1	2219	1395	wa_short_2_2.wav	K	0	302816	304905	306733
2	35	2	1	1	1103	1	2632	2576	ki_short_2_1.wav	C	0	311386	312489	316469
2	36	4	4	2	1897	1	2134	2130	schl_2_1.wav	G	0	320620	322517	325274
2	37	6	6	1	1983	0	2720	2123	wa_short_2_2.wav	K	0	330009	331992	334651
2	38	6	5	1	1543	1	1852	1796	pf_2_1_loudCheck.wav	K	0	338525	340068	342846
2	39	4	4	2	1448	1	2786	2324	schl_2_1.wav	G	0	347649	349097	352492
2	40	5	5	2	1279	1	2671	1656	pf_2_1_loudCheck.wav	J	0	357184	358463	361357
2	41	3	3	2	1457	1	2911	899	zi_2_2.wav	F	0	366277	367734	369686
2	42	1	1	2	1156	1	2010	2619	ki_short_2_1.wav	B	0	373715	374871	378850
2	43	4	4	2	1248	1	2503	1066	schl_2_1.wav	G	0	383377	384625	386963
2	44	2	1	1	1132	1	2925	1582	ki_short_2_1.wav	C	0	391906	393038	396001
2	45	3	4	1	1260	1	3200	2754	schl_2_1.wav	F	0	401217	402477	406490
2	46	5	6	1	1849	1	2954	2403	wa_short_2_2.wav	J	0	411465	413314	416385
2	47	4	3	1	1319	1	2532	1855	zi_2_2.wav	G	0	420941	422260	425304
2	48	1	2	1	1449	1	2670	2602	ka_loudCheck.wav	B	0	429982	431431	435120
