block	trial	vStim	aStim	resp	rt	fb	iti	feedJitter	vSymbol	aFile	FBtype	stimOnset	respOnset	feedbackOnset
2	1	2	3	2	1	6623	1	1852	1592	I	A	I	w_2_2_loudCheck.wav	practice	practice	practice
2	2	1	2	2	2	856	1	3200	1066	E	I	I	w_2_2_loudCheck.wav	practice	practice	practice
2	3	2	3	3	2	665	1	2458	1996	I	A	A	k_2_1_loudCheck.wav	practice	practice	practice
2	4	1	3	1	1	646	1	2134	2130	E	A	E	z_2_2.wav	practice	practice	practice
2	5	2	1	1	2	605	1	2182	1628	I	E	E	z_2_2.wav	practice	practice	practice
2	6	3	1	3	1	587	1	2350	2619	A	E	A	k_2_1_loudCheck.wav	practice	practice	practice
2	1	4	3	1	1175	0	1760	2041	zi_2_2.wav	G	Cong	6802	7977	11360
2	2	2	2	1	973	1	2670	1066	ka_loudCheck.wav	C	Cong	16068	17041	19653
2	3	4	3	1	1123	0	3740	2602	zi_2_2.wav	G	Cong	25412	26535	30523
2	4	5	6	1	879	0	2364	2189	wa_short_2_2.wav	J	Cong	34928	35807	39627
2	5	1	2	2	1377	1	1927	2173	ka_loudCheck.wav	B	Cong	43577	44954	48282
2	6	1	1	1	1052	1	2786	1289	ki_short_2_1.wav	B	Cong	53107	54159	56915
2	7	3	4	1	1534	0	2335	1670	schl_2_1.wav	F	Cong	61277	62811	65469
2	8	2	2	1	1301	1	2195	1146	ka_loudCheck.wav	C	Cong	69675	70976	73334
2	9	3	3	1	1193	1	2678	899	zi_2_2.wav	F	Cong	78034	79227	81443
2	10	5	5	2	1016	0	1615	1996	pf_2_1_loudCheck.wav	J	Cong	85094	86110	89603
2	11	2	2	1	755	1	2586	2123	ka_loudCheck.wav	C	Cong	94206	94961	98849
2	12	6	5	1	1085	0	2925	1509	pf_2_1_loudCheck.wav	K	Cong	103796	104881	107818
2	13	1	1	1	1568	1	3066	1628	ki_short_2_1.wav	B	Cong	112907	114475	117055
2	14	5	6	2	1211	1	2334	1656	wa_short_2_2.wav	J	Cong	121409	122620	125572
2	15	4	4	1	1270	1	2639	1582	schl_2_1.wav	G	Cong	130220	131490	134318
2	16	6	6	2	1281	0	3315	1465	wa_short_2_2.wav	K	Cong	139649	140930	143652
2	17	3	3	1	1416	1	2532	2576	zi_2_2.wav	F	Cong	148201	149617	153301
2	18	6	5	1	880	0	3581	1574	pf_2_1_loudCheck.wav	K	Cong	158899	159779	162993
2	19	2	1	1	1390	0	2720	1105	ki_short_2_1.wav	C	Cong	167737	169127	171360
2	20	4	3	1	1183	0	2986	1380	zi_2_2.wav	G	Cong	176359	177542	180257
2	21	5	5	1	753	1	2466	2403	pf_2_1_loudCheck.wav	J	Cong	184742	185495	189652
2	22	1	2	1	958	0	3200	2244	ka_loudCheck.wav	B	Cong	194876	195834	199640
2	23	6	6	2	1607	0	2632	2341	wa_short_2_2.wav	K	Cong	204289	205896	209137
2	24	3	4	2	1644	1	2134	2131	schl_2_1.wav	F	Cong	213291	214935	217947
2	25	1	2	1	942	0	2010	2151	ka_loudCheck.wav	B	Cong	221971	222913	226638
2	26	5	5	1	746	1	2503	1395	pf_2_1_loudCheck.wav	J	Cong	231151	231897	235083
2	27	3	4	1	1077	0	1991	2619	schl_2_1.wav	F	Cong	239095	240172	244232
2	28	5	6	2	1701	1	3387	2754	wa_short_2_2.wav	J	Cong	249643	251344	254912
2	29	3	3	1	1107	1	2221	2582	zi_2_2.wav	F	Cong	259154	260261	264256
2	30	1	1	1	1345	1	2871	1796	ki_short_2_1.wav	B	Cong	269138	270483	273451
2	31	2	2	1	688	1	2035	1855	ka_loudCheck.wav	C	Cong	277504	278192	281866
2	32	6	5	2	1014	1	1738	2324	pf_2_1_loudCheck.wav	K	Cong	285612	286626	290442
2	33	2	1	2	1315	1	2881	2035	ki_short_2_1.wav	C	Cong	295343	296658	299902
2	34	6	6	1	1396	1	2219	1639	wa_short_2_2.wav	K	Cong	304132	305528	308276
2	35	2	1	2	1289	1	1889	1320	ki_short_2_1.wav	C	Cong	312174	313463	316015
2	36	4	4	2	1506	0	2350	2924	schl_2_1.wav	G	Cong	320378	321884	325809
2	37	6	6	1	1313	1	2954	1599	wa_short_2_2.wav	K	Cong	330780	332093	334913
2	38	6	5	2	839	1	2448	2220	pf_2_1_loudCheck.wav	K	Cong	339376	340215	344105
2	39	4	4	1	1002	1	2885	1592	schl_2_1.wav	G	Cong	348998	350000	353126
2	40	5	5	1	745	1	1852	2130	pf_2_1_loudCheck.wav	J	Cong	357001	357746	361639
2	41	3	3	1	871	1	2841	2422	zi_2_2.wav	F	Cong	366495	367366	371431
2	42	1	1	1	967	1	2269	1453	ki_short_2_1.wav	B	Cong	375722	376689	379680
2	43	4	4	1	1461	1	2836	1779	schl_2_1.wav	G	Cong	384529	385990	388843
2	44	2	1	2	1188	1	2911	1718	ki_short_2_1.wav	C	Cong	393772	394960	398000
2	45	3	4	2	1381	1	2458	1654	schl_2_1.wav	F	Cong	402471	403852	406640
2	46	5	6	2	1317	1	2671	1795	wa_short_2_2.wav	J	Cong	411322	412639	415635
2	47	4	3	2	1586	1	3114	2898	zi_2_2.wav	G	Cong	420767	422353	426171
2	48	1	2	1	899	0	2182	2155	ka_loudCheck.wav	B	Cong	430363	431262	435028
