block	trial	vStim	aStim	resp	rt	fb	iti	feedJitter	aFile	vSymbol	LeftIsMatch	stimOnset	respOnset	feedbackOnset
2	1	2	3	2	1	1442	1	1852	1592	I	A	w_2_2_loudCheck.wav	practice	practice	practice
2	2	1	2	2	2	1018	1	3200	1066	E	I	w_2_2_loudCheck.wav	practice	practice	practice
2	3	2	3	3	2	994	1	2458	1996	I	A	k_2_1_loudCheck.wav	practice	practice	practice
2	4	1	3	1	1	909	1	2134	2130	E	A	z_2_2.wav	practice	practice	practice
2	5	2	1	1	2	816	1	2182	1628	I	E	z_2_2.wav	practice	practice	practice
2	6	3	1	3	1	1198	1	2350	2619	A	E	k_2_1_loudCheck.wav	practice	practice	practice
2	1	4	3	1	2225	0	1760	2422	zi_2_2.wav	G	1	6793	9018	11732
2	2	2	2	1	1159	1	3387	2123	ka_loudCheck.wav	C	1	17141	18300	21779
2	3	4	3	2	1309	1	1991	1509	zi_2_2.wav	G	1	25792	27101	29836
2	4	5	6	1	1156	0	1889	1855	wa_short_2_2.wav	J	1	33748	34904	38123
2	5	1	2	2	1664	1	2466	1453	ka_loudCheck.wav	B	1	42598	44262	46558
2	6	1	1	1	931	1	2195	2582	ki_short_2_1.wav	B	1	50766	51697	55877
2	7	3	4	1	1124	0	2881	2619	schl_2_1.wav	F	1	60769	61893	65895
2	8	2	2	1	1298	1	2836	2341	ka_loudCheck.wav	C	1	70755	72053	75614
2	9	3	3	2	1596	0	3200	2602	zi_2_2.wav	F	1	80834	82430	85956
2	10	5	5	1	1872	1	2134	2130	pf_2_1_loudCheck.wav	J	1	90114	91986	94752
2	11	2	2	1	986	1	2448	2403	ka_loudCheck.wav	C	1	99215	100201	104127
2	12	6	5	2	1306	1	2586	2220	pf_2_1_loudCheck.wav	K	1	108737	110043	113477
2	13	1	1	1	2175	1	2010	2754	ki_short_2_1.wav	B	1	117495	119670	122765
2	14	5	6	2	1947	1	2786	1582	wa_short_2_2.wav	J	1	127572	129519	131673
2	15	4	4	1	1736	1	3315	1654	schl_2_1.wav	G	1	137004	138740	141179
2	16	6	6	2	1704	0	2458	2189	wa_short_2_2.wav	K	1	145647	147351	150351
2	17	3	3	1	1804	1	3066	2035	zi_2_2.wav	F	1	155440	157244	159996
2	18	6	5	2	2265	1	2871	1996	pf_2_1_loudCheck.wav	K	1	164878	167143	169390
2	19	2	1	2	1761	1	2532	1289	ki_short_2_1.wav	C	1	173939	175700	177736
2	20	4	3	1	1319	0	2986	1574	zi_2_2.wav	G	1	182733	184052	186824
2	21	5	5	1	1940	1	2639	1146	pf_2_1_loudCheck.wav	J	1	191488	193428	195150
2	22	1	2	1	1566	0	2670	899	ka_loudCheck.wav	B	1	199841	201407	203259
2	23	6	6	2	1972	0	1615	1628	wa_short_2_2.wav	K	1	206894	208866	211035
2	24	3	4	1	1422	0	2720	1380	schl_2_1.wav	F	1	215774	217196	219673
2	25	1	2	1	1339	0	2364	1599	ka_loudCheck.wav	B	1	224056	225395	228182
2	26	5	5	1	1643	1	2885	1796	pf_2_1_loudCheck.wav	J	1	233083	234726	237398
2	27	3	4	1	1460	0	2925	1795	schl_2_1.wav	F	1	242341	243801	246648
2	28	5	6	1	1779	0	1927	2131	wa_short_2_2.wav	J	1	250594	252373	255241
2	29	3	3	1	1523	1	2954	1066	zi_2_2.wav	F	1	260209	261732	263808
2	30	1	1	1	1762	1	2219	1656	ki_short_2_1.wav	B	1	268046	269808	272224
2	31	2	2	1	1183	1	2334	1779	ka_loudCheck.wav	C	1	276566	277749	280852
2	32	6	5	1	1720	0	2182	2151	pf_2_1_loudCheck.wav	K	1	285052	286772	289713
2	33	2	1	2	1902	1	2632	2173	ki_short_2_1.wav	C	1	294356	296258	299052
2	34	6	6	1	1328	1	2335	1395	wa_short_2_2.wav	K	1	303409	304737	307310
2	35	2	1	2	1843	1	2911	1592	ki_short_2_1.wav	C	1	312242	314085	316360
2	36	4	4	1	1389	1	1852	2244	schl_2_1.wav	G	1	320235	321624	325004
2	37	6	6	1	1614	1	2350	1718	wa_short_2_2.wav	K	1	329371	330985	333596
2	38	6	5	2	2182	1	1738	2155	pf_2_1_loudCheck.wav	K	1	337347	339529	342008
2	39	4	4	1	1777	1	3740	2041	schl_2_1.wav	G	1	347771	349548	352322
2	40	5	5	1	1624	1	2269	1670	pf_2_1_loudCheck.wav	J	1	356613	358237	360805
2	41	3	3	1	2068	1	3114	1465	zi_2_2.wav	F	1	365930	367998	369901
2	42	1	1	1	2427	1	2035	1639	ki_short_2_1.wav	B	1	373953	376380	378099
2	43	4	4	1	1284	1	2503	2576	schl_2_1.wav	G	1	382611	383895	387707
2	44	2	1	2	1633	1	2671	1320	ki_short_2_1.wav	C	1	392395	394028	396233
2	45	3	4	2	1419	1	2841	2324	schl_2_1.wav	F	1	401087	402506	405925
2	46	5	6	1	1236	0	2221	2898	wa_short_2_2.wav	J	1	410166	411402	415584
2	47	4	3	2	1747	1	2678	2924	zi_2_2.wav	G	1	420272	422019	425707
2	48	1	2	2	1075	1	3581	1105	ka_loudCheck.wav	B	1	431305	432380	434930
