block	trial	vStim	aStim	resp	rt	fb	iti	feedJitter	aFile	vSymbol	LeftIsMatch	stimOnset	respOnset	feedbackOnset
2	1	2	3	2	2	1031	0	1852	1592	I	A	I	w_2_2_loudCheck.wav	practice	practice	practice
2	2	1	2	2	2	1314	1	3200	1066	E	I	I	w_2_2_loudCheck.wav	practice	practice	practice
2	3	2	3	3	2	966	1	2458	1996	I	A	A	k_2_1_loudCheck.wav	practice	practice	practice
2	4	1	3	1	1	825	1	2134	2130	E	A	E	z_2_2.wav	practice	practice	practice
2	5	2	1	1	2	780	1	2182	1628	I	E	E	z_2_2.wav	practice	practice	practice
2	6	3	1	3	1	783	1	2350	2619	A	E	A	k_2_1_loudCheck.wav	practice	practice	practice
2	1	4	3	2	990	1	3315	1320	zi_2_2.wav	G	1	8369	9359	12209
2	2	2	2	2	1229	0	2954	1592	ka_loudCheck.wav	C	1	17210	18439	21318
2	3	4	3	2	990	1	2269	1453	zi_2_2.wav	G	1	25610	26600	29585
2	4	5	6	1	1104	0	1615	1599	wa_short_2_2.wav	J	1	33229	34333	37341
2	5	1	2	1	1059	0	1760	1380	ka_loudCheck.wav	B	1	41117	42176	45014
2	6	1	1	2	1296	0	2334	2898	ki_short_2_1.wav	B	1	49400	50696	54821
2	7	3	4	2	1281	1	3581	1654	schl_2_1.wav	F	1	60445	61726	64636
2	8	2	2	1	1185	1	2458	1289	ka_loudCheck.wav	C	1	69104	70289	72909
2	9	3	3	2	1957	0	3740	1795	zi_2_2.wav	F	1	78659	80616	82964
2	10	5	5	2	1254	0	2364	2924	pf_2_1_loudCheck.wav	J	1	87380	88634	92814
2	11	2	2	2	1935	0	2586	2041	ka_loudCheck.wav	C	1	97417	99352	101978
2	12	6	5	1	1346	0	2466	1656	pf_2_1_loudCheck.wav	K	1	106466	107812	110629
2	13	1	1	2	1772	0	1991	2151	ki_short_2_1.wav	B	1	114628	116400	119298
2	14	5	6	2	1744	1	2532	2422	wa_short_2_2.wav	J	1	123840	125584	128787
2	15	4	4	1	2148	1	3387	2123	schl_2_1.wav	G	1	134195	136343	138833
2	16	6	6	1	1528	1	2195	1066	wa_short_2_2.wav	K	1	143051	144579	146646
2	17	3	3	1	1794	1	2841	2619	zi_2_2.wav	F	1	151505	153299	156655
2	18	6	5	1	1557	0	2010	2220	pf_2_1_loudCheck.wav	K	1	160688	162245	165424
2	19	2	1	2	1379	1	2986	1996	ki_short_2_1.wav	C	1	170418	171797	174932
2	20	4	3	1	1304	0	2925	2403	zi_2_2.wav	G	1	179874	181178	184789
2	21	5	5	1	1761	1	2885	1146	pf_2_1_loudCheck.wav	J	1	189698	191459	193364
2	22	1	2	1	1708	0	2911	2155	ka_loudCheck.wav	B	1	198296	200004	202978
2	23	6	6	2	1383	0	2219	2035	wa_short_2_2.wav	K	1	207220	208603	211761
2	24	3	4	2	2268	1	2035	1796	schl_2_1.wav	F	1	215807	218075	220110
2	25	1	2	1	965	0	2836	2173	ka_loudCheck.wav	B	1	224964	225929	229672
2	26	5	5	1	971	1	2881	1509	pf_2_1_loudCheck.wav	J	1	234575	235546	238591
2	27	3	4	1	2384	0	2503	2754	schl_2_1.wav	F	1	243116	245500	248391
2	28	5	6	2	1410	1	3114	2582	wa_short_2_2.wav	J	1	253526	254936	258614
2	29	3	3	1	1525	1	2871	1574	zi_2_2.wav	F	1	263496	265021	267603
2	30	1	1	1	1618	1	2448	2131	ki_short_2_1.wav	B	1	272075	273693	276732
2	31	2	2	1	1310	1	3066	2576	ka_loudCheck.wav	C	1	281812	283122	286909
2	32	6	5	2	1891	1	2221	2189	pf_2_1_loudCheck.wav	K	1	291147	293038	295873
2	33	2	1	2	1758	1	2720	1582	ki_short_2_1.wav	C	1	300615	302373	304716
2	34	6	6	2	1275	0	1738	1670	wa_short_2_2.wav	K	1	308470	309745	312646
2	35	2	1	2	1269	1	2671	1395	ki_short_2_1.wav	C	1	317328	318597	321241
2	36	4	4	1	1886	1	2632	1855	schl_2_1.wav	G	1	325894	327780	330256
2	37	6	6	1	1413	1	1927	2324	wa_short_2_2.wav	K	1	334191	335604	339031
2	38	6	5	2	1940	1	2670	899	pf_2_1_loudCheck.wav	K	1	343721	345661	347139
2	39	4	4	1	775	1	2678	2602	schl_2_1.wav	G	1	351836	352611	356966
2	40	5	5	1	1587	1	2639	1628	pf_2_1_loudCheck.wav	J	1	361629	363216	365774
2	41	3	3	2	1182	0	1852	2244	zi_2_2.wav	F	1	369646	370828	374398
2	42	1	1	1	1561	1	2335	1639	ki_short_2_1.wav	B	1	378750	380311	382911
2	43	4	4	1	1053	1	3200	1779	schl_2_1.wav	G	1	388120	389173	392419
2	44	2	1	2	1269	1	1889	1718	ki_short_2_1.wav	C	1	396326	397595	400564
2	45	3	4	2	1644	1	2134	1105	schl_2_1.wav	F	1	404711	406355	408324
2	46	5	6	1	1947	0	2350	2341	wa_short_2_2.wav	J	1	412686	414633	417535
2	47	4	3	2	1359	1	2182	1465	zi_2_2.wav	G	1	421736	423095	425728
2	48	1	2	1	1807	0	2786	2130	ka_loudCheck.wav	B	1	430531	432338	435180
