block	trial	vStim	aStim	resp	rt	fb	iti	feedJitter	aFile	vSymbol	LeftIsMatch	stimOnset	respOnset	feedbackOnset
1	1	2	3	2	2	945	1	1852	1592	R	V	e_short_2_2.wav	practice	practice	practice
1	2	1	2	2	1	1040	1	3200	1066	N	R	e_short_2_2.wav	practice	practice	practice
1	3	2	3	3	1	1227	1	2458	1996	R	V	t_2_1_loudCheck.wav	practice	practice	practice
1	4	1	3	1	2	833	1	2134	2130	N	V	a_short_2_2.wav	practice	practice	practice
1	5	2	1	1	1	962	1	2182	1628	R	N	a_short_2_2.wav	practice	practice	practice
1	6	3	1	3	2	1088	1	2350	2619	V	N	t_2_1_loudCheck.wav	practice	practice	practice
1	1	4	3	2	1558	0	2986	2151	e_long_2_2.wav	T	0	8013	9571	12682
1	2	2	1	2	1099	0	3387	1628	a_long_2_3_loudCheck.wav	P	0	18080	19179	22223
1	3	5	5	1	2443	0	2269	1453	st_2_2_loudCheck.wav	W	0	26512	28955	30470
1	4	4	3	1	1581	1	3114	2173	e_long_2_2.wav	T	0	35597	37178	40275
1	5	2	1	1	1338	1	2885	1395	a_long_2_3_loudCheck.wav	P	0	45182	46520	49113
1	6	5	6	1	1369	1	2335	2602	wö_2_2_loudCheck.wav	W	0	53469	54838	58577
1	7	3	4	2	2226	0	2911	2422	sche_2_1.wav	S	0	63512	65738	68444
1	8	6	5	2	2036	0	2836	2041	st_2_2_loudCheck.wav	X	0	73302	75338	77861
1	9	2	2	2	1564	1	2871	1582	un_short_2_1_loudCheck.wav	P	0	82754	84318	86853
1	10	3	3	1	1850	0	2586	1066	e_long_2_2.wav	S	0	91455	93305	95041
1	11	5	5	2	1292	1	2035	899	st_2_2_loudCheck.wav	W	0	99094	100386	102517
1	12	1	1	2	2175	1	2221	2924	a_long_2_3_loudCheck.wav	O	0	106757	108932	112202
1	13	2	2	2	1360	1	2841	1599	un_short_2_1_loudCheck.wav	P	0	117060	118420	121172
1	14	3	3	2	2124	1	3066	2244	e_long_2_2.wav	S	0	126254	128378	131019
1	15	4	4	2	1935	1	2786	1796	sche_2_1.wav	T	0	135822	137757	140154
1	16	5	6	1	2218	1	2182	2324	wö_2_2_loudCheck.wav	W	0	144353	146571	149203
1	17	4	3	1	1552	1	2720	1996	e_long_2_2.wav	T	0	153944	155496	158458
1	18	6	5	2	1132	0	2678	1855	st_2_2_loudCheck.wav	X	0	163153	164285	167519
1	19	3	4	0	0	2	2350	1795	sche_2_1.wav	S	0	171877	0	176196
1	20	5	6	2	1562	0	1738	2130	wö_2_2_loudCheck.wav	W	0	179953	181515	184589
1	21	1	1	2	1669	1	2671	2035	a_long_2_3_loudCheck.wav	O	0	189275	190944	193844
1	22	6	6	1	2474	0	1991	1670	wö_2_2_loudCheck.wav	X	0	197846	200320	202034
1	23	4	3	1	1379	1	1889	1289	e_long_2_2.wav	T	0	205935	207314	209744
1	24	3	4	2	1482	0	2632	1320	sche_2_1.wav	S	0	214387	215869	218214
1	25	6	5	2	1222	0	3740	2220	st_2_2_loudCheck.wav	X	0	223967	225189	228697
1	26	3	3	2	1269	1	2532	2123	e_long_2_2.wav	S	0	233237	234506	237868
1	27	5	5	2	1748	1	2195	2898	st_2_2_loudCheck.wav	W	0	242085	243833	247496
1	28	6	6	2	1166	1	3200	2403	wö_2_2_loudCheck.wav	X	0	252706	253872	257628
1	29	2	1	1	1497	1	3581	2131	a_long_2_3_loudCheck.wav	P	0	263234	264731	267901
1	30	1	2	1	1551	1	3315	1574	un_short_2_1_loudCheck.wav	O	0	273230	274781	277341
1	31	6	6	1	2121	0	2364	2576	wö_2_2_loudCheck.wav	X	0	281729	283850	286815
1	32	1	1	2	995	1	2334	1105	a_long_2_3_loudCheck.wav	O	0	291166	292161	294778
1	33	3	3	2	813	1	1760	1718	e_long_2_2.wav	S	0	298550	299363	302802
1	34	1	2	1	1250	1	2134	1639	un_short_2_1_loudCheck.wav	O	0	306949	308199	311095
1	35	3	4	1	1682	1	2503	1654	sche_2_1.wav	S	0	315607	317289	319798
1	36	2	2	2	963	1	2881	1146	un_short_2_1_loudCheck.wav	P	0	324690	325653	328342
1	37	1	1	2	1239	1	2639	2754	a_long_2_3_loudCheck.wav	O	0	333002	334241	338290
1	38	4	4	2	2291	1	2925	2189	sche_2_1.wav	T	0	343236	345527	347938
1	39	5	5	2	1400	1	1852	2582	st_2_2_loudCheck.wav	W	0	351812	353212	356902
1	40	4	4	2	1812	1	2458	2619	sche_2_1.wav	T	0	361371	363183	366505
1	41	6	6	2	1609	1	1615	2155	wö_2_2_loudCheck.wav	X	0	370144	371753	374812
1	42	2	2	2	1393	1	2010	1656	un_short_2_1_loudCheck.wav	P	0	378845	380238	383017
1	43	4	4	2	1461	1	2466	1592	sche_2_1.wav	T	0	387492	388953	391607
1	44	1	2	1	1336	1	2448	2341	un_short_2_1_loudCheck.wav	O	0	396078	397414	400928
1	45	2	1	1	1438	1	2670	1779	a_long_2_3_loudCheck.wav	P	0	405618	407056	409916
1	46	1	2	1	1347	1	2954	1465	un_short_2_1_loudCheck.wav	O	0	414888	416235	418870
1	47	6	5	2	1468	0	2219	1380	st_2_2_loudCheck.wav	X	0	423106	424574	426991
1	48	5	6	1	1345	1	1927	1509	wö_2_2_loudCheck.wav	W	0	430938	432283	434962
