block	trial	vStim	aStim	resp	rt	fb	iti	feedJitter	aFile	vSymbol	LeftIsMatch	stimOnset	respOnset	feedbackOnset
1	1	2	3	2	1	1526	1	1852	1592	R	V	R	e_short_2_2.wav	practice	practice	practice
1	2	1	2	2	2	886	1	3200	1066	N	R	R	e_short_2_2.wav	practice	practice	practice
1	3	2	3	3	2	1235	1	2458	1996	R	V	V	t_2_1_loudCheck.wav	practice	practice	practice
1	4	1	3	1	1	1094	1	2134	2130	N	V	N	a_short_2_2.wav	practice	practice	practice
1	5	2	1	1	2	696	1	2182	1628	R	N	N	a_short_2_2.wav	practice	practice	practice
1	6	3	1	3	1	734	1	2350	2619	V	N	V	t_2_1_loudCheck.wav	practice	practice	practice
1	1	4	3	2	1997	1	2134	2602	e_long_2_2.wav	T	1	7189	9186	12299
1	2	2	1	1	1779	0	2334	2189	a_long_2_3_loudCheck.wav	P	1	16657	18436	21353
1	3	5	5	1	1445	1	2954	2155	st_2_2_loudCheck.wav	W	1	26343	27788	31018
1	4	4	3	1	1594	0	2466	1105	e_long_2_2.wav	T	1	35507	37101	39120
1	5	2	1	1	1031	0	3200	2041	a_long_2_3_loudCheck.wav	P	1	44332	45363	48892
1	6	5	6	2	947	1	3581	2403	wö_2_2_loudCheck.wav	W	1	54509	55456	59418
1	7	3	4	1	1373	0	2639	1465	sche_2_1.wav	S	1	64095	65468	68096
1	8	6	5	1	1171	0	2364	1639	st_2_2_loudCheck.wav	X	1	72477	73648	76626
1	9	2	2	1	1206	1	3114	1574	un_short_2_1_loudCheck.wav	P	1	81782	82988	85862
1	10	3	3	1	1427	1	2786	2582	e_long_2_2.wav	S	1	90672	92099	95773
1	11	5	5	1	849	1	2350	2151	st_2_2_loudCheck.wav	W	1	100134	100983	104792
1	12	1	1	1	1248	1	2836	2754	a_long_2_3_loudCheck.wav	O	1	109639	110887	114911
1	13	2	2	2	1349	0	2035	2173	un_short_2_1_loudCheck.wav	P	1	118968	120317	123665
1	14	3	3	1	1780	1	2911	2898	e_long_2_2.wav	S	1	128598	130378	134022
1	15	4	4	1	1143	1	2671	1628	sche_2_1.wav	T	1	138703	139846	142866
1	16	5	6	2	841	1	1889	1592	wö_2_2_loudCheck.wav	W	1	146775	147616	150904
1	17	4	3	2	1249	1	1615	1320	e_long_2_2.wav	T	1	154542	155791	158374
1	18	6	5	2	1066	1	2678	1289	st_2_2_loudCheck.wav	X	1	163065	164131	166865
1	19	3	4	2	1682	1	3066	1654	sche_2_1.wav	S	1	171942	173624	176117
1	20	5	6	2	947	1	2195	2324	wö_2_2_loudCheck.wav	W	1	180322	181269	185159
1	21	1	1	1	1196	1	3315	1795	a_long_2_3_loudCheck.wav	O	1	190494	191690	194826
1	22	6	6	2	1182	0	2670	899	wö_2_2_loudCheck.wav	X	1	199515	200697	202933
1	23	4	3	2	1208	1	2503	2924	e_long_2_2.wav	T	1	207455	208663	212900
1	24	3	4	1	1289	0	2458	2619	sche_2_1.wav	S	1	217371	218660	222526
1	25	6	5	1	1882	0	2720	2341	st_2_2_loudCheck.wav	X	1	227269	229151	232145
1	26	3	3	2	2216	0	2632	2131	e_long_2_2.wav	S	1	236797	239013	241435
1	27	5	5	1	1078	1	2221	1670	st_2_2_loudCheck.wav	W	1	245667	246745	249844
1	28	6	6	1	1288	1	1852	1718	wö_2_2_loudCheck.wav	X	1	253707	254995	257933
1	29	2	1	1	982	0	3740	2220	a_long_2_3_loudCheck.wav	P	1	263686	264668	268416
1	30	1	2	1	1295	0	1760	1066	un_short_2_1_loudCheck.wav	O	1	272184	273479	275767
1	31	6	6	1	1242	1	2586	1996	wö_2_2_loudCheck.wav	X	1	280372	281614	284904
1	32	1	1	2	1353	0	2986	1395	a_long_2_3_loudCheck.wav	O	1	289907	291260	293836
1	33	3	3	1	1309	1	2885	1509	e_long_2_2.wav	S	1	298739	300048	302770
1	34	1	2	1	1779	0	2010	1656	un_short_2_1_loudCheck.wav	O	1	306803	308582	310975
1	35	3	4	1	1543	0	2335	2130	sche_2_1.wav	S	1	315318	316861	319954
1	36	2	2	1	1398	1	2448	2422	un_short_2_1_loudCheck.wav	P	1	324418	325816	329348
1	37	1	1	2	1283	0	1991	2244	a_long_2_3_loudCheck.wav	O	1	333361	334644	338140
1	38	4	4	1	1218	1	1927	2576	sche_2_1.wav	T	1	342084	343302	347176
1	39	5	5	1	1152	1	1738	1796	st_2_2_loudCheck.wav	W	1	350931	352083	355233
1	40	4	4	1	1169	1	3387	1582	sche_2_1.wav	T	1	360637	361806	364751
1	41	6	6	1	1210	1	2841	1599	wö_2_2_loudCheck.wav	X	1	369608	370818	373719
1	42	2	2	1	1977	1	2871	1855	un_short_2_1_loudCheck.wav	P	1	378607	380584	382996
1	43	4	4	1	1623	1	2925	1779	sche_2_1.wav	T	1	387929	389552	392221
1	44	1	2	1	1383	0	2219	2035	un_short_2_1_loudCheck.wav	O	1	396458	397841	400999
1	45	2	1	1	1003	0	2881	2123	a_long_2_3_loudCheck.wav	P	1	405890	406893	410537
1	46	1	2	1	1153	0	2182	1146	un_short_2_1_loudCheck.wav	O	1	414738	415891	418397
1	47	6	5	2	1386	1	2269	1453	st_2_2_loudCheck.wav	X	1	422687	424073	426645
1	48	5	6	1	820	0	2532	1380	wö_2_2_loudCheck.wav	W	1	431190	432010	435077
