block	trial	vStim	aStim	resp	rt	fb	iti	feedJitter	aFile	vSymbol	LeftIsMatch	stimOnset	respOnset	feedbackOnset
2	1	2	3	2	1	1283	1	1852	1592	I	A	w_2_2_loudCheck.wav	practice	practice	practice
2	2	1	2	2	2	1036	1	3200	1066	E	I	w_2_2_loudCheck.wav	practice	practice	practice
2	3	2	3	3	2	2184	1	2458	1996	I	A	k_2_1_loudCheck.wav	practice	practice	practice
2	4	1	3	1	1	1544	1	2134	2130	E	A	z_2_2.wav	practice	practice	practice
2	5	2	1	1	2	1208	1	2182	1628	I	E	z_2_2.wav	practice	practice	practice
2	6	3	1	3	1	1279	1	2350	2619	A	E	k_2_1_loudCheck.wav	practice	practice	practice
2	1	4	3	1	1811	0	2448	2341	zi_2_2.wav	G	1	7509	9320	12359
2	2	2	2	1	1653	1	1889	1380	ka_loudCheck.wav	C	1	16301	17954	20202
2	3	4	3	2	1908	1	2720	2151	zi_2_2.wav	G	1	24941	26849	29611
2	4	5	6	1	2041	0	2134	2155	wa_short_2_2.wav	J	1	33772	35813	38435
2	5	1	2	2	1884	1	2639	2041	ka_loudCheck.wav	B	1	43097	44981	47655
2	6	1	1	1	1475	1	1615	1146	ki_short_2_1.wav	B	1	51325	52800	55000
2	7	3	4	1	2135	0	3066	1639	schl_2_1.wav	F	1	60120	62255	64280
2	8	2	2	1	1573	1	2334	2602	ka_loudCheck.wav	C	1	68623	70196	73748
2	9	3	3	1	1871	1	2986	1996	zi_2_2.wav	F	1	78758	80629	83289
2	10	5	5	1	1528	1	2836	1599	pf_2_1_loudCheck.wav	J	1	88175	89703	92292
2	11	2	2	1	1369	1	2350	1582	ka_loudCheck.wav	C	1	96658	98027	100747
2	12	6	5	2	1896	1	1738	2123	pf_2_1_loudCheck.wav	K	1	104502	106398	109130
2	13	1	1	1	1678	1	2586	2576	ki_short_2_1.wav	B	1	113739	115417	118835
2	14	5	6	2	2298	1	3740	2131	wa_short_2_2.wav	J	1	124592	126890	129233
2	15	4	4	1	1442	1	2871	2619	schl_2_1.wav	G	1	134118	135560	139254
2	16	6	6	1	2101	1	2678	1656	wa_short_2_2.wav	K	1	143955	146056	148122
2	17	3	3	1	1642	1	2364	1453	zi_2_2.wav	F	1	152495	154137	156458
2	18	6	5	2	2014	1	1852	1592	pf_2_1_loudCheck.wav	K	1	160322	162336	164439
2	19	2	1	2	2035	1	2925	1628	ki_short_2_1.wav	C	1	169386	171421	173544
2	20	4	3	2	1517	1	2182	1718	zi_2_2.wav	G	1	177745	179262	181990
2	21	5	5	1	1245	1	2458	1574	pf_2_1_loudCheck.wav	J	1	186460	187705	190550
2	22	1	2	2	1369	1	2221	1670	ka_loudCheck.wav	B	1	194795	196164	198985
2	23	6	6	1	1464	1	2503	2924	wa_short_2_2.wav	K	1	203499	204963	208960
2	24	3	4	2	2369	1	3387	1795	schl_2_1.wav	F	1	214364	216733	218674
2	25	1	2	2	1310	1	2010	1465	ka_loudCheck.wav	B	1	222703	224013	226683
2	26	5	5	1	1361	1	3200	2035	pf_2_1_loudCheck.wav	J	1	231900	233261	236471
2	27	3	4	2	2063	1	1991	2130	schl_2_1.wav	F	1	240473	242536	245121
2	28	5	6	2	1249	1	2632	1796	wa_short_2_2.wav	J	1	249769	251018	254072
2	29	3	3	2	1454	0	2035	2244	zi_2_2.wav	F	1	258124	259578	262876
2	30	1	1	1	1391	1	2335	2324	ki_short_2_1.wav	B	1	267228	268619	272058
2	31	2	2	1	1410	1	2881	1289	ka_loudCheck.wav	C	1	276959	278369	280755
2	32	6	5	2	1568	1	2671	2220	pf_2_1_loudCheck.wav	K	1	285437	287005	290174
2	33	2	1	2	1894	1	2911	2189	ki_short_2_1.wav	C	1	295094	296988	299793
2	34	6	6	0	0	2	1927	1395	wa_short_2_2.wav	K	1	303742	0	307670
2	35	2	1	1	1067	0	2885	2422	ki_short_2_1.wav	C	1	312575	313642	317517
2	36	4	4	1	1943	1	2841	1509	schl_2_1.wav	G	1	322380	324323	326402
2	37	6	6	1	1580	1	3114	1855	wa_short_2_2.wav	K	1	331539	333119	335900
2	38	6	5	1	1787	0	2466	1779	pf_2_1_loudCheck.wav	K	1	340375	342162	344661
2	39	4	4	1	1257	1	2954	1320	schl_2_1.wav	G	1	349633	350890	353470
2	40	5	5	2	2275	0	2670	2582	pf_2_1_loudCheck.wav	J	1	358153	360428	363254
2	41	3	3	1	1479	1	3315	2754	zi_2_2.wav	F	1	368580	370059	373871
2	42	1	1	1	1457	1	1760	1066	ki_short_2_1.wav	B	1	377652	379109	381251
2	43	4	4	1	2045	1	2786	899	schl_2_1.wav	G	1	386056	388101	389474
2	44	2	1	1	1739	0	2195	2898	ki_short_2_1.wav	C	1	393688	395427	399099
2	45	3	4	2	1442	1	2269	1654	schl_2_1.wav	F	1	403378	404820	407537
2	46	5	6	2	2043	1	3581	1105	wa_short_2_2.wav	J	1	413129	415172	416754
2	47	4	3	2	1356	1	2219	2403	zi_2_2.wav	G	1	420985	422341	425894
2	48	1	2	2	2135	1	2532	2173	ka_loudCheck.wav	B	1	430450	432585	435131
