block	trial	vStim	aStim	resp	rt	fb	iti	feedJitter	aFile	vSymbol	LeftIsMatch	stimOnset	respOnset	feedbackOnset
1	1	2	3	2	1	2214	1	1852	1592	R	V	R	e_short_2_2.wav	practice	practice	practice
1	2	1	2	2	2	1702	1	3200	1066	N	R	R	e_short_2_2.wav	practice	practice	practice
1	3	2	3	3	2	6244	1	2458	1996	R	V	V	t_2_1_loudCheck.wav	practice	practice	practice
1	4	1	3	1	1	1802	1	2134	2130	N	V	N	a_short_2_2.wav	practice	practice	practice
1	5	2	1	1	2	2034	1	2182	1628	R	N	N	a_short_2_2.wav	practice	practice	practice
1	6	3	1	3	1	3357	1	2350	2619	V	N	V	t_2_1_loudCheck.wav	practice	practice	practice
1	1	4	3	1	1425	0	2350	1395	e_long_2_2.wav	T	1	7402	8827	11305
1	2	2	1	1	1248	0	2925	2754	a_long_2_3_loudCheck.wav	P	1	16250	17498	21517
1	3	5	5	1	2412	1	2503	1574	st_2_2_loudCheck.wav	W	1	26074	28486	30185
1	4	4	3	2	1157	1	2195	1654	e_long_2_2.wav	T	1	34404	35561	38588
1	5	2	1	2	871	1	1760	2041	a_long_2_3_loudCheck.wav	P	1	42358	43229	46916
1	6	5	6	2	1044	1	2364	2341	wö_2_2_loudCheck.wav	W	1	51335	52379	56186
1	7	3	4	1	2024	0	2678	1592	sche_2_1.wav	S	1	60917	62941	65036
1	8	6	5	0	0	2	2219	2324	st_2_2_loudCheck.wav	X	1	69278	0	74108
1	9	2	2	1	1434	1	1615	1855	un_short_2_1_loudCheck.wav	P	1	77776	79210	82160
1	10	3	3	1	1484	1	2954	2123	e_long_2_2.wav	S	1	87123	88607	91763
1	11	5	5	1	1024	1	2335	2220	st_2_2_loudCheck.wav	W	1	96118	97142	100862
1	12	1	1	1	1321	1	3315	899	a_long_2_3_loudCheck.wav	O	1	106185	107506	109605
1	13	2	2	2	2143	0	3114	2035	un_short_2_1_loudCheck.wav	P	1	114738	116881	119279
1	14	3	3	1	906	1	3066	2155	e_long_2_2.wav	S	1	124356	125262	129032
1	15	4	4	2	1041	0	2586	2130	sche_2_1.wav	T	1	133641	134682	138291
1	16	5	6	2	1127	1	2632	1453	wö_2_2_loudCheck.wav	W	1	142938	144065	146915
1	17	4	3	1	1270	0	2466	2924	e_long_2_2.wav	T	1	151394	152664	156825
1	18	6	5	1	1101	0	2670	2131	st_2_2_loudCheck.wav	X	1	161512	162613	166179
1	19	3	4	2	1254	1	2269	2898	sche_2_1.wav	S	1	170462	171716	175865
1	20	5	6	2	1276	1	2334	1146	wö_2_2_loudCheck.wav	W	1	180209	181485	183878
1	21	1	1	1	1401	1	2871	2602	a_long_2_3_loudCheck.wav	O	1	188771	190172	193889
1	22	6	6	1	2396	1	1991	1996	wö_2_2_loudCheck.wav	X	1	197904	200300	202419
1	23	4	3	1	2040	0	3581	1628	e_long_2_2.wav	T	1	208016	210056	212164
1	24	3	4	2	1102	1	2911	1599	sche_2_1.wav	S	1	217095	218197	221220
1	25	6	5	2	1809	1	1852	1718	st_2_2_loudCheck.wav	X	1	225088	226897	229314
1	26	3	3	1	2134	1	2134	1380	e_long_2_2.wav	S	1	233461	235595	237349
1	27	5	5	1	1211	1	1738	1289	st_2_2_loudCheck.wav	W	1	241106	242317	244901
1	28	6	6	1	2442	1	2986	1796	wö_2_2_loudCheck.wav	X	1	249897	252339	254211
1	29	2	1	1	947	0	2448	1582	a_long_2_3_loudCheck.wav	P	1	258677	259624	262784
1	30	1	2	2	1416	1	2035	1066	un_short_2_1_loudCheck.wav	O	1	266836	268252	270425
1	31	6	6	1	1350	1	2639	2151	wö_2_2_loudCheck.wav	X	1	275083	276433	279750
1	32	1	1	1	1197	1	2532	1656	a_long_2_3_loudCheck.wav	O	1	284293	285490	288473
1	33	3	3	1	2021	1	2885	1670	e_long_2_2.wav	S	1	293367	295388	297556
1	34	1	2	2	1555	1	2671	1105	un_short_2_1_loudCheck.wav	O	1	302238	303793	305861
1	35	3	4	1	929	0	2720	2582	sche_2_1.wav	S	1	310594	311523	315694
1	36	2	2	1	1963	1	2786	1779	un_short_2_1_loudCheck.wav	P	1	320491	322454	324789
1	37	1	1	1	1466	1	3740	2189	a_long_2_3_loudCheck.wav	O	1	330547	332013	335246
1	38	4	4	1	1175	1	2182	2422	sche_2_1.wav	T	1	339451	340626	344382
1	39	5	5	1	1494	1	2458	1509	st_2_2_loudCheck.wav	W	1	348862	350356	352886
1	40	4	4	1	1164	1	2010	1639	sche_2_1.wav	T	1	356919	358083	361074
1	41	6	6	1	1498	1	2221	2244	wö_2_2_loudCheck.wav	X	1	365304	366802	370085
1	42	2	2	1	1686	1	1889	2403	un_short_2_1_loudCheck.wav	P	1	373991	375677	378914
1	43	4	4	1	1207	1	1927	1465	sche_2_1.wav	T	1	382866	384073	386863
1	44	1	2	2	2253	1	3387	1795	un_short_2_1_loudCheck.wav	O	1	392267	394520	396593
1	45	2	1	2	1839	1	2841	2619	a_long_2_3_loudCheck.wav	P	1	401453	403292	406586
1	46	1	2	2	1909	1	3200	2576	un_short_2_1_loudCheck.wav	O	1	411810	413719	416905
1	47	6	5	2	1461	1	2881	1320	st_2_2_loudCheck.wav	X	1	421803	423264	425630
1	48	5	6	2	2386	1	2836	2173	wö_2_2_loudCheck.wav	W	1	430479	432865	435170
