block	trial	vStim	aStim	resp	rt	fb	iti	feedJitter	aFile	vSymbol	LeftIsMatch	stimOnset	respOnset	feedbackOnset
2	1	2	3	2	2	3136	1	1852	1592	I	A	w_2_2_loudCheck.wav	practice	practice	practice
2	2	1	2	2	1	1743	1	3200	1066	E	I	w_2_2_loudCheck.wav	practice	practice	practice
2	3	2	3	3	1	1495	1	2458	1996	I	A	k_2_1_loudCheck.wav	practice	practice	practice
2	4	1	3	1	2	1098	1	2134	2130	E	A	z_2_2.wav	practice	practice	practice
2	5	2	1	1	1	968	1	2182	1628	I	E	z_2_2.wav	practice	practice	practice
2	6	3	1	3	2	1197	1	2350	2619	A	E	k_2_1_loudCheck.wav	practice	practice	practice
2	1	4	3	0	0	2	2219	2324	zi_2_2.wav	G	0	7259	0	12088
2	2	2	2	2	1653	1	2639	1639	ka_loudCheck.wav	C	0	16748	18401	20903
2	3	4	3	2	1588	0	2010	1592	zi_2_2.wav	G	0	24922	26510	29028
2	4	5	6	2	1634	0	1615	2619	wa_short_2_2.wav	J	0	32651	34285	37783
2	5	1	2	2	1720	0	3387	2924	ka_loudCheck.wav	B	0	43194	44914	48649
2	6	1	1	2	1707	1	2134	2602	ki_short_2_1.wav	B	0	52800	54507	57910
2	7	3	4	2	2000	0	1738	1146	schl_2_1.wav	F	0	61672	63672	65324
2	8	2	2	2	1040	1	2195	1996	ka_loudCheck.wav	C	0	69540	70580	74049
2	9	3	3	2	1130	1	2503	2173	zi_2_2.wav	F	0	78569	79699	83278
2	10	5	5	1	1833	0	2448	2155	pf_2_1_loudCheck.wav	J	0	87748	89581	92429
2	11	2	2	2	859	1	3114	2189	ka_loudCheck.wav	C	0	97566	98425	102261
2	12	6	5	1	2272	1	3581	1066	pf_2_1_loudCheck.wav	K	0	107865	110137	111451
2	13	1	1	2	1405	1	1852	1380	ki_short_2_1.wav	B	0	115321	116726	119209
2	14	5	6	1	2289	1	2836	1320	wa_short_2_2.wav	J	0	124064	126353	127903
2	15	4	4	2	2031	1	2458	1395	schl_2_1.wav	G	0	132374	134405	136284
2	16	6	6	0	0	2	2350	1453	wa_short_2_2.wav	K	0	140655	0	144615
2	17	3	3	2	1395	1	1889	2422	zi_2_2.wav	F	0	148517	149912	153476
2	18	6	5	1	1531	1	2269	1795	pf_2_1_loudCheck.wav	K	0	157766	159297	162067
2	19	2	1	1	1680	1	3740	1796	ki_short_2_1.wav	C	0	167826	169506	172131
2	20	4	3	1	1389	1	2632	2403	zi_2_2.wav	G	0	176781	178170	181708
2	21	5	5	2	1180	1	2911	2151	pf_2_1_loudCheck.wav	J	0	186643	187823	191304
2	22	1	2	1	1725	1	2586	2754	ka_loudCheck.wav	B	0	195901	197626	201175
2	23	6	6	2	1618	1	3315	2035	wa_short_2_2.wav	K	0	206511	208129	211067
2	24	3	4	2	2006	0	1991	1656	schl_2_1.wav	F	0	215069	217075	219243
2	25	1	2	1	1251	1	3066	2123	ka_loudCheck.wav	B	0	224317	225568	228961
2	26	5	5	2	1554	1	2221	1855	pf_2_1_loudCheck.wav	J	0	233204	234758	237579
2	27	3	4	2	2228	0	2720	1654	schl_2_1.wav	F	0	242308	244536	246481
2	28	5	6	1	1836	1	2986	1289	wa_short_2_2.wav	J	0	251477	253313	255284
2	29	3	3	2	997	1	2954	899	zi_2_2.wav	F	0	260249	261246	263664
2	30	1	1	2	1447	1	2841	1628	ki_short_2_1.wav	B	0	268525	269972	272666
2	31	2	2	2	944	1	1760	2244	ka_loudCheck.wav	C	0	276446	277390	281207
2	32	6	5	1	1833	1	2881	1599	pf_2_1_loudCheck.wav	K	0	286106	287939	290245
2	33	2	1	1	1716	1	2532	1509	ki_short_2_1.wav	C	0	294793	296509	298809
2	34	6	6	2	1564	1	2364	2582	wa_short_2_2.wav	K	0	303196	304760	308288
2	35	2	1	1	1423	1	2334	1670	ki_short_2_1.wav	C	0	312633	314056	316826
2	36	4	4	2	1516	1	2335	1465	schl_2_1.wav	G	0	321172	322688	325159
2	37	6	6	2	1053	1	2925	2130	wa_short_2_2.wav	K	0	330102	331155	334744
2	38	6	5	1	1526	1	2466	2220	pf_2_1_loudCheck.wav	K	0	339225	340751	343953
2	39	4	4	2	1555	1	1927	1105	schl_2_1.wav	G	0	347888	349443	351509
2	40	5	5	2	1280	1	3200	1718	pf_2_1_loudCheck.wav	J	0	356721	358001	360959
2	41	3	3	2	973	1	2671	2341	zi_2_2.wav	F	0	365642	366615	370501
2	42	1	1	2	1253	1	2871	1582	ki_short_2_1.wav	B	0	375392	376645	379508
2	43	4	4	2	1091	1	2035	2576	schl_2_1.wav	G	0	383559	384650	388642
2	44	2	1	1	1167	1	2670	2898	ki_short_2_1.wav	C	0	393329	394496	398746
2	45	3	4	1	1134	1	2786	2131	schl_2_1.wav	F	0	403542	404676	408192
2	46	5	6	1	1082	1	2885	2041	wa_short_2_2.wav	J	0	413091	414173	417651
2	47	4	3	1	1577	1	2678	1574	zi_2_2.wav	G	0	422351	423928	426436
2	48	1	2	1	953	1	2182	1779	ka_loudCheck.wav	B	0	430642	431595	434947
