block	trial	vStim	aStim	resp	rt	fb	iti	feedJitter	aFile	vSymbol	LeftIsMatch	stimOnset	respOnset	feedbackOnset
2	1	2	3	2	2	2298	1	1852	1592	I	A	w_2_2_loudCheck.wav	practice	practice	practice
2	2	1	2	2	1	1356	1	3200	1066	E	I	w_2_2_loudCheck.wav	practice	practice	practice
2	3	2	3	3	1	1257	1	2458	1996	I	A	k_2_1_loudCheck.wav	practice	practice	practice
2	4	1	3	1	2	927	1	2134	2130	E	A	z_2_2.wav	practice	practice	practice
2	5	2	1	1	1	1755	1	2182	1628	I	E	z_2_2.wav	practice	practice	practice
2	6	3	1	3	2	937	1	2350	2619	A	E	k_2_1_loudCheck.wav	practice	practice	practice
2	1	4	3	2	1588	0	2678	1670	zi_2_2.wav	G	0	7705	9293	11902
2	2	2	2	2	1846	1	2364	1656	ka_loudCheck.wav	C	0	16277	18123	20460
2	3	4	3	1	1887	1	2010	1146	zi_2_2.wav	G	0	24478	26365	28156
2	4	5	6	1	2215	1	2134	2220	wa_short_2_2.wav	J	0	32311	34526	37039
2	5	1	2	1	2026	1	2986	2189	ka_loudCheck.wav	B	0	42033	44059	46740
2	6	1	1	2	1350	1	2350	1628	ki_short_2_1.wav	B	0	51113	52463	55248
2	7	3	4	1	1897	1	2954	2602	schl_2_1.wav	F	0	60222	62119	65341
2	8	2	2	2	2457	1	2335	1066	ka_loudCheck.wav	C	0	69700	72157	73272
2	9	3	3	2	1122	1	2786	1718	zi_2_2.wav	F	0	78076	79198	82313
2	10	5	5	1	2373	0	2195	2403	pf_2_1_loudCheck.wav	J	0	86521	88894	91437
2	11	2	2	2	1576	1	2885	1105	ka_loudCheck.wav	C	0	96343	97919	99954
2	12	6	5	2	1394	0	2881	2422	pf_2_1_loudCheck.wav	K	0	104847	106241	109776
2	13	1	1	2	1348	1	1991	2131	ki_short_2_1.wav	B	0	113788	115136	118438
2	14	5	6	1	2254	1	2221	1453	wa_short_2_2.wav	J	0	122673	124927	126663
2	15	4	4	1	2211	0	2219	1509	schl_2_1.wav	G	0	130894	133105	134909
2	16	6	6	0	0	2	3315	1599	wa_short_2_2.wav	K	0	140247	0	144383
2	17	3	3	2	1370	1	3740	1320	zi_2_2.wav	F	0	150139	151509	153969
2	18	6	5	2	1447	0	2671	1855	pf_2_1_loudCheck.wav	K	0	158652	160099	163025
2	19	2	1	1	1646	1	2448	1582	ki_short_2_1.wav	C	0	167482	169128	171572
2	20	4	3	1	1525	1	1760	2155	zi_2_2.wav	G	0	175349	176874	180021
2	21	5	5	2	2082	1	2586	1592	pf_2_1_loudCheck.wav	J	0	184630	186712	188740
2	22	1	2	1	1738	1	1927	2576	ka_loudCheck.wav	B	0	192675	194413	197784
2	23	6	6	2	1686	1	2466	1996	wa_short_2_2.wav	K	0	202267	203953	206787
2	24	3	4	2	2100	0	2182	1465	schl_2_1.wav	F	0	210985	213085	214960
2	25	1	2	1	1416	1	2458	2041	ka_loudCheck.wav	B	0	219435	220851	223991
2	26	5	5	2	1908	1	2925	2582	pf_2_1_loudCheck.wav	J	0	228938	230846	234032
2	27	3	4	1	1685	1	3581	2619	schl_2_1.wav	F	0	239624	241309	244779
2	28	5	6	1	1449	1	2836	1289	wa_short_2_2.wav	J	0	249639	251088	253447
2	29	3	3	2	1910	1	1852	1779	zi_2_2.wav	F	0	257309	259219	261613
2	30	1	1	2	1459	1	2269	1395	ki_short_2_1.wav	B	0	265900	267359	269800
2	31	2	2	2	1491	1	2532	2244	ka_loudCheck.wav	C	0	274353	275844	279105
2	32	6	5	2	2137	0	2503	2324	pf_2_1_loudCheck.wav	K	0	283625	285762	288486
2	33	2	1	1	1321	1	2720	1796	ki_short_2_1.wav	C	0	293226	294547	297557
2	34	6	6	2	1677	1	1889	2924	wa_short_2_2.wav	K	0	301464	303141	306909
2	35	2	1	1	1693	1	3114	2898	ki_short_2_1.wav	C	0	312040	313733	317444
2	36	4	4	2	1933	1	2632	2035	schl_2_1.wav	G	0	322086	324019	326644
2	37	6	6	2	2146	1	2035	1574	wa_short_2_2.wav	K	0	330690	332836	334771
2	38	6	5	1	2099	1	2841	2173	pf_2_1_loudCheck.wav	K	0	339637	341736	344323
2	39	4	4	1	2135	0	1738	899	schl_2_1.wav	G	0	348083	350218	351505
2	40	5	5	2	1918	1	2670	2341	pf_2_1_loudCheck.wav	J	0	356194	358112	361054
2	41	3	3	2	1554	1	3200	2123	zi_2_2.wav	F	0	366274	367828	370933
2	42	1	1	2	1290	1	2639	1654	ki_short_2_1.wav	B	0	375594	376884	379765
2	43	4	4	2	1702	1	2334	2130	schl_2_1.wav	G	0	384109	385811	388746
2	44	2	1	1	1472	1	2871	1380	ki_short_2_1.wav	C	0	393632	395104	397546
2	45	3	4	2	1931	0	3066	1795	schl_2_1.wav	F	0	402631	404562	406947
2	46	5	6	1	1322	1	1615	1639	wa_short_2_2.wav	J	0	410581	411903	414732
2	47	4	3	1	1593	1	3387	2754	zi_2_2.wav	G	0	420128	421721	425397
2	48	1	2	1	1573	1	2911	2151	ka_loudCheck.wav	B	0	430329	431902	434990
