block	trial	vStim	aStim	resp	rt	fb	iti	feedJitter	aFile	vSymbol	LeftIsMatch	stimOnset	respOnset	feedbackOnset
1	1	2	3	2	2	1547	0	1852	1592	R	V	e_short_2_2.wav	practice	practice	practice
1	2	1	2	2	2	1169	1	3200	1066	N	R	e_short_2_2.wav	practice	practice	practice
1	3	2	3	3	2	810	1	2458	1996	R	V	t_2_1_loudCheck.wav	practice	practice	practice
1	4	1	3	1	1	1348	1	2134	2130	N	V	a_short_2_2.wav	practice	practice	practice
1	5	2	1	1	2	849	1	2182	1628	R	N	a_short_2_2.wav	practice	practice	practice
1	6	3	1	3	1	962	1	2350	2619	V	N	t_2_1_loudCheck.wav	practice	practice	practice
1	1	4	3	1	2132	0	2871	2754	e_long_2_2.wav	T	1	7921	10053	13193
1	2	2	1	2	1496	1	2448	2123	a_long_2_3_loudCheck.wav	P	1	17663	19159	22294
1	3	5	5	1	1896	1	2639	899	st_2_2_loudCheck.wav	W	1	26989	28885	30404
1	4	4	3	2	1564	1	2458	1289	e_long_2_2.wav	T	1	34882	36446	38686
1	5	2	1	2	1399	1	2269	2576	a_long_2_3_loudCheck.wav	P	1	42966	44365	48047
1	6	5	6	2	1065	1	2841	1656	wö_2_2_loudCheck.wav	W	1	52939	54004	57125
1	7	3	4	1	2219	0	2632	2155	sche_2_1.wav	S	1	61797	64016	66477
1	8	6	5	1	1570	0	2134	1320	st_2_2_loudCheck.wav	X	1	70651	72221	74479
1	9	2	2	1	1773	1	2670	1465	un_short_2_1_loudCheck.wav	P	1	79195	80968	83195
1	10	3	3	2	1289	0	2334	2130	e_long_2_2.wav	S	1	87547	88836	92183
1	11	5	5	1	1744	1	2219	2131	st_2_2_loudCheck.wav	W	1	96418	98162	101054
1	12	1	1	1	2456	1	2836	2173	a_long_2_3_loudCheck.wav	O	1	105905	108361	110596
1	13	2	2	1	1872	1	2885	1718	un_short_2_1_loudCheck.wav	P	1	115503	117375	119757
1	14	3	3	1	2445	1	2881	1395	e_long_2_2.wav	S	1	124651	127096	128553
1	15	4	4	1	2481	1	1615	2151	sche_2_1.wav	T	1	132189	134670	136852
1	16	5	6	2	918	1	2035	1599	wö_2_2_loudCheck.wav	W	1	140898	141816	145005
1	17	4	3	1	1410	0	2182	1795	e_long_2_2.wav	T	1	149202	150612	153507
1	18	6	5	2	1299	1	2678	1670	st_2_2_loudCheck.wav	X	1	158204	159503	162384
1	19	3	4	2	2253	1	2195	2220	sche_2_1.wav	S	1	166591	168844	171324
1	20	5	6	2	1147	1	2954	2403	wö_2_2_loudCheck.wav	W	1	176286	177433	181205
1	21	1	1	0	0	2	1852	1146	a_long_2_3_loudCheck.wav	O	1	185082	0	188752
1	22	6	6	2	982	0	1760	1855	wö_2_2_loudCheck.wav	X	1	192550	193532	196922
1	23	4	3	2	2078	1	3387	1105	e_long_2_2.wav	T	1	202317	204395	205937
1	24	3	4	2	1329	1	2911	1582	sche_2_1.wav	S	1	210860	212189	214969
1	25	6	5	2	1440	1	3581	2341	st_2_2_loudCheck.wav	X	1	220566	222006	225427
1	26	3	3	1	2402	1	2671	1574	e_long_2_2.wav	S	1	230118	232520	234210
1	27	5	5	1	1553	1	1991	1380	st_2_2_loudCheck.wav	W	1	238225	239778	242123
1	28	6	6	1	1317	1	2503	2422	wö_2_2_loudCheck.wav	X	1	246645	247962	251587
1	29	2	1	2	1943	1	3740	1509	a_long_2_3_loudCheck.wav	P	1	257349	259292	261368
1	30	1	2	1	2098	0	2335	1453	un_short_2_1_loudCheck.wav	O	1	265726	267824	269684
1	31	6	6	1	1618	1	2350	1066	wö_2_2_loudCheck.wav	X	1	274047	275665	277620
1	32	1	1	2	1544	0	2586	2035	a_long_2_3_loudCheck.wav	O	1	282224	283768	286779
1	33	3	3	1	2334	1	2925	2898	e_long_2_2.wav	S	1	291715	294049	297126
1	34	1	2	2	1907	1	2786	2189	un_short_2_1_loudCheck.wav	O	1	301922	303829	306646
1	35	3	4	2	1808	1	3315	2324	sche_2_1.wav	S	1	311984	313792	316828
1	36	2	2	0	0	2	2986	1996	un_short_2_1_loudCheck.wav	P	1	321835	0	326349
1	37	1	1	1	1291	1	1889	1796	a_long_2_3_loudCheck.wav	O	1	330254	331545	334571
1	38	4	4	1	2254	1	3200	2602	sche_2_1.wav	T	1	339789	342043	344910
1	39	5	5	1	1554	1	3114	2582	st_2_2_loudCheck.wav	W	1	350048	351602	355136
1	40	4	4	2	1949	0	2720	2924	sche_2_1.wav	T	1	359867	361816	365310
1	41	6	6	1	1416	1	1738	2619	wö_2_2_loudCheck.wav	X	1	369065	370481	374189
1	42	2	2	1	1943	1	2010	1628	un_short_2_1_loudCheck.wav	P	1	378223	380166	382367
1	43	4	4	1	1975	1	2364	1779	sche_2_1.wav	T	1	386751	388726	391040
1	44	1	2	2	1251	1	3066	2041	un_short_2_1_loudCheck.wav	O	1	396124	397375	400686
1	45	2	1	2	2047	1	1927	1592	a_long_2_3_loudCheck.wav	P	1	404634	406681	408742
1	46	1	2	2	2111	1	2466	1654	un_short_2_1_loudCheck.wav	O	1	413231	415342	417408
1	47	6	5	2	1342	1	2532	1639	st_2_2_loudCheck.wav	X	1	421951	423293	426114
1	48	5	6	2	2018	1	2221	2244	wö_2_2_loudCheck.wav	W	1	430344	432362	435108
