block	trial	vStim	aStim	resp	rt	fb	iti	feedJitter	vSymbol	aFile	FBtype	stimOnset	respOnset	feedbackOnset
1	1	2	3	2	2	2355	0	1852	1592	R	V	R	e_short_2_2.wav	practice	practice	practice
1	2	1	2	2	2	1254	1	3200	1066	N	R	R	e_short_2_2.wav	practice	practice	practice
1	3	2	3	3	2	2552	1	2458	1996	R	V	V	t_2_1_loudCheck.wav	practice	practice	practice
1	4	1	3	1	2	4917	0	2134	2130	N	V	N	a_short_2_2.wav	practice	practice	practice
1	5	2	1	1	2	955	1	2182	1628	R	N	N	a_short_2_2.wav	practice	practice	practice
1	6	3	1	3	1	857	1	2350	2619	V	N	V	t_2_1_loudCheck.wav	practice	practice	practice
1	1	4	3	2	1392	1	3387	1592	e_long_2_2.wav	T	Cong	8444	9836	12567
1	2	2	1	1	1260	0	2035	2602	a_long_2_3_loudCheck.wav	P	Cong	16625	17885	21734
1	3	5	5	1	1179	1	2671	2244	st_2_2_loudCheck.wav	W	Cong	26446	27625	31224
1	4	4	3	1	1073	0	2335	1779	e_long_2_2.wav	T	Cong	35577	36650	39878
1	5	2	1	2	1273	1	3200	2189	a_long_2_3_loudCheck.wav	P	Cong	45096	46369	49821
1	6	5	6	2	960	1	3315	2422	wö_2_2_loudCheck.wav	W	Cong	55175	56135	60118
1	7	3	4	1	1404	0	3581	1795	sche_2_1.wav	S	Cong	65737	67141	70052
1	8	6	5	1	1428	0	2836	1320	st_2_2_loudCheck.wav	X	Cong	74907	76335	78745
1	9	2	2	2	1563	0	2871	1574	un_short_2_1_loudCheck.wav	P	Cong	83646	85209	87737
1	10	3	3	1	1281	1	2466	1996	e_long_2_2.wav	S	Cong	92227	93508	96730
1	11	5	5	1	921	1	1852	2220	st_2_2_loudCheck.wav	W	Cong	100599	101520	105343
1	12	1	1	2	1293	0	2364	1656	a_long_2_3_loudCheck.wav	O	Cong	109716	111009	113881
1	13	2	2	2	1397	0	2881	2324	un_short_2_1_loudCheck.wav	P	Cong	118771	120168	123602
1	14	3	3	1	805	1	2219	1453	e_long_2_2.wav	S	Cong	127841	128646	131800
1	15	4	4	2	1553	0	2503	2619	sche_2_1.wav	T	Cong	136315	137868	141454
1	16	5	6	2	1123	1	2586	2403	wö_2_2_loudCheck.wav	W	Cong	146064	147187	150987
1	17	4	3	1	1061	0	2720	1105	e_long_2_2.wav	T	Cong	155731	156792	159355
1	18	6	5	2	1429	1	2334	1654	st_2_2_loudCheck.wav	X	Cong	163701	165130	167862
1	19	3	4	2	1412	1	3740	2151	sche_2_1.wav	S	Cong	173612	175024	178273
1	20	5	6	2	1059	1	3066	1670	wö_2_2_loudCheck.wav	W	Cong	183350	184409	187541
1	21	1	1	1	2246	1	1615	2341	a_long_2_3_loudCheck.wav	O	Cong	191167	193413	196037
1	22	6	6	1	1469	1	2458	2155	wö_2_2_loudCheck.wav	X	Cong	200515	201984	205186
1	23	4	3	2	1600	1	2632	899	e_long_2_2.wav	T	Cong	209841	211441	213247
1	24	3	4	2	1037	1	2954	2754	sche_2_1.wav	S	Cong	218221	219258	223491
1	25	6	5	2	1344	1	2182	1066	st_2_2_loudCheck.wav	X	Cong	227695	229039	231270
1	26	3	3	1	867	1	1991	1146	e_long_2_2.wav	S	Cong	235279	236146	238960
1	27	5	5	1	745	1	1760	1289	st_2_2_loudCheck.wav	W	Cong	242741	243486	246547
1	28	6	6	1	940	1	2195	2898	wö_2_2_loudCheck.wav	X	Cong	250753	251693	256164
1	29	2	1	1	1555	0	1738	2123	a_long_2_3_loudCheck.wav	P	Cong	259912	261467	264558
1	30	1	2	2	1577	1	2639	1599	un_short_2_1_loudCheck.wav	O	Cong	269219	270796	273351
1	31	6	6	1	1291	1	1927	2173	wö_2_2_loudCheck.wav	X	Cong	277294	278585	281983
1	32	1	1	1	1066	1	2911	2130	a_long_2_3_loudCheck.wav	O	Cong	286916	287982	291556
1	33	3	3	1	869	1	2786	2924	e_long_2_2.wav	S	Cong	296357	297226	301800
1	34	1	2	1	1388	0	2269	1509	un_short_2_1_loudCheck.wav	O	Cong	306086	307474	310117
1	35	3	4	0	0	2	2532	1395	sche_2_1.wav	S	Cong	314672	0	318591
1	36	2	2	1	1209	1	2448	2041	un_short_2_1_loudCheck.wav	P	Cong	323060	324269	327610
1	37	1	1	2	1561	0	2678	2035	a_long_2_3_loudCheck.wav	O	Cong	332309	333870	336855
1	38	4	4	1	1288	1	2134	1465	sche_2_1.wav	T	Cong	341000	342288	344989
1	39	5	5	1	840	1	2010	1718	st_2_2_loudCheck.wav	W	Cong	349016	349856	353250
1	40	4	4	1	1058	1	2221	1796	sche_2_1.wav	T	Cong	357484	358542	361800
1	41	6	6	1	903	1	1889	2131	wö_2_2_loudCheck.wav	X	Cong	365707	366610	370359
1	42	2	2	1	1285	1	2925	1582	un_short_2_1_loudCheck.wav	P	Cong	375298	376583	379392
1	43	4	4	1	864	1	2350	1639	sche_2_1.wav	T	Cong	383759	384623	387905
1	44	1	2	2	1371	1	2986	1380	un_short_2_1_loudCheck.wav	O	Cong	392900	394271	396798
1	45	2	1	1	1380	0	2670	2576	a_long_2_3_loudCheck.wav	P	Cong	401487	402867	406582
1	46	1	2	1	1821	0	2841	1628	un_short_2_1_loudCheck.wav	O	Cong	411440	413261	415598
1	47	6	5	2	999	1	3114	2582	st_2_2_loudCheck.wav	X	Cong	420732	421731	425836
1	48	5	6	2	1198	1	2885	1855	wö_2_2_loudCheck.wav	W	Cong	430732	431930	435123
