block	trial	vStims	aStim	resp	rt	fb	iti	feedJitter	vSymbols	aFile	stimOnset	respOnset	feedbackOnset
1	1	2	3	2	1	999	1	1852	1592	R	V	R	e_short_2_2.wav	practice	practice	practice
1	2	1	2	2	2	983	1	3200	1066	N	R	R	e_short_2_2.wav	practice	practice	practice
1	3	2	3	3	2	1049	1	2458	1996	R	V	V	t_2_1_loudCheck.wav	practice	practice	practice
1	4	1	3	1	1	1008	1	2134	2130	N	V	N	a_short_2_2.wav	practice	practice	practice
1	5	2	1	1	2	1019	1	2182	1628	R	N	N	a_short_2_2.wav	practice	practice	practice
1	6	3	1	3	1	946	1	2350	2619	V	N	V	t_2_1_loudCheck.wav	practice	practice	practice
1	1	10_14	5	2	2195	1	3581	2924	X_¸_switched	st_2_2_loudCheck.wav	56345	58540	61789
1	2	3_8	2	1	2292	1	2334	1855	Q_¼	un_short_2_1_loudCheck.wav	66145	68437	70526
1	3	11_4	6	2	1622	1	1852	1628	Y_»_switched	wö_2_2_loudCheck.wav	74396	76018	78547
1	4	1_3	1	2	1902	1	3740	1146	O_Q_switched	a_long_2_3_loudCheck.wav	84313	86215	87988
1	5	6_1	4	1	1538	1	2586	1670	T_O	sche_2_1.wav	92597	94135	96793
1	6	3_13	2	2	2257	0	2871	1795	Q_·_switched	un_short_2_1_loudCheck.wav	101683	103940	106004
1	7	6_7	4	1	1074	1	2182	2324	T_U	sche_2_1.wav	110213	111287	115082
1	8	5_12	3	1	1353	1	1889	1582	S_½	e_long_2_2.wav	118989	120342	123107
1	9	11_3	6	2	2013	0	3200	2035	Y_Q	wö_2_2_loudCheck.wav	128329	130342	132897
1	10	10_7	5	2	1157	1	1738	2041	X_U_switched	st_2_2_loudCheck.wav	136657	137814	141217
1	11	1_5	1	1	1116	1	2925	1395	O_S	a_long_2_3_loudCheck.wav	146158	147274	150092
1	12	3_1	2	2	1359	1	2195	2422	Q_O_switched	un_short_2_1_loudCheck.wav	154313	155672	159266
1	13	10_15	5	2	1224	1	2458	2602	X_¹_switched	st_2_2_loudCheck.wav	163745	164969	168867
1	14	6_10	4	1	1939	1	2954	899	T_X	sche_2_1.wav	173846	175785	177272
1	15	11_12	6	2	1837	0	3114	1105	Y_½	wö_2_2_loudCheck.wav	182404	184241	186027
1	16	3_9	2	1	1574	1	2986	2189	Q_W	un_short_2_1_loudCheck.wav	191043	192617	195761
1	17	10_15	5	2	1225	1	2035	2754	X_¹_switched	st_2_2_loudCheck.wav	199815	201040	205093
1	18	11_12	6	1	1908	1	2786	1599	Y_½	wö_2_2_loudCheck.wav	209903	211811	214029
1	19	6_11	4	1	1213	1	2532	2582	T_Y	sche_2_1.wav	218583	219796	223695
1	20	1_5	1	2	1190	1	2503	2151	O_S_switched	a_long_2_3_loudCheck.wav	228226	229416	232903
1	21	6_2	4	1	1335	1	1927	2123	T_P	sche_2_1.wav	236853	238188	241524
1	22	10_16	5	1	1160	1	2885	1996	X_º	st_2_2_loudCheck.wav	246427	247587	250969
1	23	6_11	4	1	1025	1	2010	1509	T_Y	sche_2_1.wav	255007	256032	259048
1	24	11_4	6	1	2034	1	2335	2173	Y_»	wö_2_2_loudCheck.wav	263411	265445	268110
1	25	3_13	2	2	1681	0	2134	2155	Q_·_switched	un_short_2_1_loudCheck.wav	272262	273943	276960
1	26	6_2	4	2	1478	1	1991	1380	T_P_switched	sche_2_1.wav	280970	282448	284885
1	27	5_13	3	2	1610	1	2670	1779	S_·_switched	e_long_2_2.wav	289578	291188	293883
1	28	1_16	1	2	1326	1	2678	1453	O_º_switched	a_long_2_3_loudCheck.wav	298588	299914	302559
1	29	3_10	2	1	1369	1	2881	1656	Q_X	un_short_2_1_loudCheck.wav	307457	308826	311646
1	30	5_1	3	2	1172	1	2221	1639	S_O_switched	e_long_2_2.wav	315883	317055	320061
1	31	1_8	1	1	1011	1	2448	2130	O_¼	a_long_2_3_loudCheck.wav	324525	325536	329185
1	32	5_11	3	2	1002	1	1615	2244	S_Y_switched	e_long_2_2.wav	332827	333829	337596
1	33	11_2	6	2	1471	1	2632	1718	Y_P_switched	wö_2_2_loudCheck.wav	342259	343730	346508
1	34	10_6	5	1	1518	1	2639	2341	X_T	st_2_2_loudCheck.wav	351167	352685	356032
1	35	11_8	6	1	1272	1	2269	2619	Y_¼	wö_2_2_loudCheck.wav	360319	361591	365462
1	36	10_9	5	2	1221	1	3315	1066	X_W_switched	st_2_2_loudCheck.wav	370802	372023	374386
1	37	3_6	2	2	1873	1	2911	1796	Q_T_switched	un_short_2_1_loudCheck.wav	379316	381189	383632
1	38	5_7	3	1	1121	1	3066	1574	S_U	e_long_2_2.wav	388724	389845	392831
1	39	1_9	1	1	1422	1	2219	1654	O_W	a_long_2_3_loudCheck.wav	397080	398502	401259
1	40	5_6	3	2	1212	1	3387	2220	S_T_switched	e_long_2_2.wav	406663	407875	411413
1	41	1_3	1	2	1124	1	2841	1289	O_Q_switched	a_long_2_3_loudCheck.wav	416275	417399	420087
1	42	6_14	4	2	1390	1	2836	2131	T_¸_switched	sche_2_1.wav	424953	426343	429612
1	43	5_4	3	2	924	1	2350	1465	S_»_switched	e_long_2_2.wav	433989	434913	437981
1	44	11_16	6	2	1300	1	2671	1320	Y_º_switched	wö_2_2_loudCheck.wav	442675	443975	446536
1	45	1_5	1	1	1247	1	1760	2576	O_S	a_long_2_3_loudCheck.wav	450313	451560	455419
1	46	5_14	3	2	1057	1	2466	2898	S_¸_switched	e_long_2_2.wav	459903	460960	465330
1	47	3_10	2	1	2060	1	2364	2403	Q_X	un_short_2_1_loudCheck.wav	469725	471785	474658
1	48	10_15	5	1	1187	1	2720	1592	X_¹	st_2_2_loudCheck.wav	479401	480588	483519
