block	trial	vStims	aStim	resp	rt	fb	iti	feedJitter	vSymbols	aFile	stimOnset	respOnset	feedbackOnset
2	1	2	3	2	1	1430	1	1852	1592	I	A	I	w_2_2_loudCheck.wav	practice	practice	practice
2	2	1	2	2	2	1524	1	3200	1066	E	I	I	w_2_2_loudCheck.wav	practice	practice	practice
2	3	2	3	3	2	1171	1	2458	1996	I	A	A	k_2_1_loudCheck.wav	practice	practice	practice
2	4	1	3	1	1	2029	1	2134	2130	E	A	E	z_2_2.wav	practice	practice	practice
2	5	2	1	1	2	2061	1	2182	1628	I	E	E	z_2_2.wav	practice	practice	practice
2	6	3	1	3	1	1308	1	2350	2619	A	E	A	k_2_1_loudCheck.wav	practice	practice	practice
2	1	1_11	1	2	1547	0	1991	1592	B_L_switched	ki_short_2_1.wav	64536	66083	68674
2	2	5_16	3	1	2057	1	2678	2123	F_Ð	zi_2_2.wav	73381	75438	78031
2	3	11_8	6	2	2339	1	2195	1574	L_Ò_switched	wa_short_2_2.wav	82307	84646	86407
2	4	5_6	3	2	2336	1	2532	1509	F_G_switched	zi_2_2.wav	90969	93305	95018
2	5	11_12	6	0	0	2	2632	2582	L_Ó_switched	wa_short_2_2.wav	99678	0	104783
2	6	3_14	2	2	1597	1	2350	1654	D_Î_switched	ka_loudCheck.wav	109206	110803	113397
2	7	1_10	1	2	2364	1	2786	1796	B_K_switched	ki_short_2_1.wav	118217	120581	122548
2	8	6_9	4	0	0	2	2364	1320	G_J	schl_2_1.wav	126954	0	130815
2	9	3_8	2	2	1326	1	1927	1795	D_Ò_switched	ka_loudCheck.wav	134775	136101	139097
2	10	1_15	1	1	1343	1	2219	2189	B_Ï	ki_short_2_1.wav	143342	144685	148067
2	11	3_14	2	2	1431	1	3387	2754	D_Î_switched	ka_loudCheck.wav	153486	154917	158792
2	12	11_2	6	0	0	2	2671	1670	L_C_switched	wa_short_2_2.wav	163497	0	167701
2	13	10_5	5	1	2233	0	2221	2220	K_F_switched	pf_2_1_loudCheck.wav	172006	174239	176776
2	14	1_10	1	1	2011	1	2503	2173	B_K	ki_short_2_1.wav	181314	183325	186022
2	15	5_2	3	1	1576	1	2335	1105	F_C	zi_2_2.wav	190388	191964	194030
2	16	10_13	5	1	1618	0	1889	1453	K_Í_switched	pf_2_1_loudCheck.wav	197950	199568	201935
2	17	3_9	2	2	1564	1	2134	1599	D_J_switched	ka_loudCheck.wav	206103	207667	210239
2	18	11_16	6	0	0	2	2885	1718	L_Ð_switched	wa_short_2_2.wav	215163	0	219417
2	19	6_5	4	1	1864	1	3315	2131	G_F	schl_2_1.wav	224769	226633	229423
2	20	10_12	5	0	0	2	2670	1996	K_Ó	pf_2_1_loudCheck.wav	234117	0	238648
2	21	3_8	2	2	1325	1	3114	2324	D_Ò_switched	ka_loudCheck.wav	243787	245112	248635
2	22	5_11	3	1	2068	1	1738	899	F_L	zi_2_2.wav	252404	254472	255836
2	23	11_1	6	1	1929	0	2986	2422	L_B_switched	wa_short_2_2.wav	260859	262788	265817
2	24	6_7	4	1	1892	1	2911	2035	G_H	schl_2_1.wav	270761	272653	275323
2	25	5_15	3	1	2008	1	2269	1656	F_Ï	zi_2_2.wav	279628	281636	283820
2	26	10_1	5	1	1840	1	2586	2924	K_B	pf_2_1_loudCheck.wav	288437	290277	293897
2	27	11_3	6	1	1616	1	2466	2403	L_D	wa_short_2_2.wav	298394	300010	303352
2	28	6_4	4	1	1958	1	1852	1582	G_Ñ	schl_2_1.wav	307239	309197	311357
2	29	1_10	1	1	1740	1	2871	2619	B_K	ki_short_2_1.wav	316250	317990	321403
2	30	10_7	5	1	1837	0	2954	2155	K_H_switched	pf_2_1_loudCheck.wav	326393	328230	331082
2	31	11_6	6	1	2340	1	2881	1465	L_G	wa_short_2_2.wav	335996	338336	339985
2	32	10_16	5	2	1323	1	3581	2576	K_Ð_switched	pf_2_1_loudCheck.wav	345588	346911	350689
2	33	6_4	4	1	1618	1	2458	1395	G_Ñ	schl_2_1.wav	355176	356794	359101
2	34	10_2	5	1	1941	0	3740	1289	K_C_switched	pf_2_1_loudCheck.wav	364866	366807	368688
2	35	5_15	3	2	1566	1	1760	1628	F_Ï_switched	zi_2_2.wav	372479	374045	376634
2	36	1_11	1	1	1286	1	1615	2151	B_L	ki_short_2_1.wav	380276	381562	384965
2	37	6_13	4	1	1213	1	3066	2041	G_Í	schl_2_1.wav	390068	391281	394665
2	38	5_14	3	2	1966	1	2925	2898	F_Î_switched	zi_2_2.wav	399620	401586	405048
2	39	11_3	6	1	1625	1	3200	1855	L_D	wa_short_2_2.wav	410272	411897	414666
2	40	1_4	1	2	1235	1	2720	2130	B_Ñ_switched	ki_short_2_1.wav	419419	420654	424083
2	41	3_1	2	2	1567	1	2010	2602	D_B_switched	ka_loudCheck.wav	428118	429685	433247
2	42	5_9	3	1	1717	0	2448	1779	F_J_switched	zi_2_2.wav	437732	439449	442034
2	43	6_12	4	1	1542	1	2639	2244	G_Ó	schl_2_1.wav	446698	448240	451491
2	44	3_13	2	1	1378	1	2841	2341	D_Í	ka_loudCheck.wav	456360	457738	461248
2	45	6_3	4	1	1354	1	2836	1639	G_D	schl_2_1.wav	466114	467468	470289
2	46	3_7	2	1	1354	1	2182	1146	D_H	ka_loudCheck.wav	474503	475857	478188
2	47	1_6	1	2	1501	1	2035	1066	B_G_switched	ki_short_2_1.wav	482247	483748	485849
2	48	10_5	5	1	1903	1	2334	1380	K_F	pf_2_1_loudCheck.wav	490220	492123	494137
