block	trial	vStims	aStim	resp	rt	fb	iti	feedJitter	vSymbols	aFile	stimOnset	respOnset	feedbackOnset
1	1	2	3	2	1	1263	1	1852	1592	R	V	R	e_short_2_2.wav	practice	practice	practice
1	2	1	2	2	2	1036	1	3200	1066	N	R	R	e_short_2_2.wav	practice	practice	practice
1	3	2	3	3	2	1080	1	2458	1996	R	V	V	t_2_1_loudCheck.wav	practice	practice	practice
1	4	1	3	1	1	1678	1	2134	2130	N	V	N	a_short_2_2.wav	practice	practice	practice
1	5	2	1	1	2	1781	1	2182	1628	R	N	N	a_short_2_2.wav	practice	practice	practice
1	6	3	1	3	1	1399	1	2350	2619	V	N	V	t_2_1_loudCheck.wav	practice	practice	practice
1	1	10_14	5	1	1736	1	2836	1105	X_¸	st_2_2_loudCheck.wav	81847	83583	85488
1	2	3_8	2	1	1769	0	1852	1465	Q_¼_switched	un_short_2_1_loudCheck.wav	89422	91191	93422
1	3	11_4	6	2	2099	1	2466	1592	Y_»_switched	wö_2_2_loudCheck.wav	97977	100076	102108
1	4	1_3	1	0	0	2	1927	1639	O_Q	a_long_2_3_loudCheck.wav	106063	0	110229
1	5	6_1	4	2	2113	1	2925	1582	T_O_switched	sche_2_1.wav	115220	117333	119331
1	6	3_13	2	1	1881	1	3200	2422	Q_·_switched	un_short_2_1_loudCheck.wav	124570	126451	129531
1	7	6_7	4	1	1923	1	2334	2130	T_U	sche_2_1.wav	133898	135821	138565
1	8	5_12	3	2	1507	1	2841	1628	S_½_switched	e_long_2_2.wav	143480	144987	147639
1	9	11_3	6	2	1982	0	3315	1599	Y_Q	wö_2_2_loudCheck.wav	152980	154962	157120
1	10	10_7	5	1	1319	1	2182	2324	X_U	st_2_2_loudCheck.wav	161340	162659	166203
1	11	1_5	1	1	2174	1	2720	1380	O_S	a_long_2_3_loudCheck.wav	170954	173128	174868
1	12	3_1	2	1	1861	0	3066	1796	Q_O_switched	un_short_2_1_loudCheck.wav	179958	181819	184293
1	13	10_15	5	2	1191	1	2586	1656	X_¹_switched	st_2_2_loudCheck.wav	188904	190095	193096
1	14	6_10	4	0	0	2	3387	2041	T_X	sche_2_1.wav	198514	0	203090
1	15	11_12	6	2	2390	0	2364	1795	Y_½	wö_2_2_loudCheck.wav	207485	209875	211803
1	16	3_9	2	1	2014	0	2448	2582	Q_W_switched	un_short_2_1_loudCheck.wav	216277	218291	221382
1	17	10_15	5	0	0	2	2911	1289	X_¹_switched	st_2_2_loudCheck.wav	226317	0	230133
1	18	11_12	6	1	1984	0	1615	2924	Y_½_switched	wö_2_2_loudCheck.wav	233779	235763	239242
1	19	6_11	4	0	0	2	2639	899	T_Y	sche_2_1.wav	243912	0	247344
1	20	1_5	1	1	1566	1	2035	2602	O_S	a_long_2_3_loudCheck.wav	251416	252982	256554
1	21	6_2	4	2	1861	0	2632	1670	T_P	sche_2_1.wav	261223	263084	265415
1	22	10_16	5	2	1464	1	2881	1996	X_º_switched	st_2_2_loudCheck.wav	270331	271795	274850
1	23	6_11	4	1	2396	1	1760	1654	T_Y	sche_2_1.wav	278636	281032	282833
1	24	11_4	6	2	2052	0	2350	1574	Y_»	wö_2_2_loudCheck.wav	287217	289269	291329
1	25	3_13	2	2	2139	0	2670	2151	Q_·_switched	un_short_2_1_loudCheck.wav	296029	298168	300731
1	26	6_2	4	1	1800	1	2532	2173	T_P	sche_2_1.wav	305300	307100	309996
1	27	5_13	3	2	2124	1	3114	1146	S_·_switched	e_long_2_2.wav	315141	317265	318829
1	28	1_16	1	1	1948	1	2503	1395	O_º	a_long_2_3_loudCheck.wav	323356	325304	327286
1	29	3_10	2	1	2170	1	2671	2189	Q_X	un_short_2_1_loudCheck.wav	331982	334152	336705
1	30	5_1	3	2	1559	1	2885	1779	S_O_switched	e_long_2_2.wav	341622	343181	345938
1	31	1_8	1	1	1647	1	2458	2619	O_¼	a_long_2_3_loudCheck.wav	350421	352068	355570
1	32	5_11	3	2	1595	1	1889	2123	S_Y_switched	e_long_2_2.wav	359495	361090	364150
1	33	11_2	6	2	2288	0	1991	2576	Y_P	wö_2_2_loudCheck.wav	368173	370461	373295
1	34	10_6	5	1	1786	1	2954	1320	X_T	st_2_2_loudCheck.wav	378278	380064	382132
1	35	11_8	6	2	1820	1	2269	2403	Y_¼_switched	wö_2_2_loudCheck.wav	386435	388255	391373
1	36	10_9	5	2	2007	1	2335	1066	X_W_switched	st_2_2_loudCheck.wav	395744	397751	399346
1	37	3_6	2	1	2126	1	2195	1718	Q_T	un_short_2_1_loudCheck.wav	403578	405704	407822
1	38	5_7	3	2	2435	1	3740	1855	S_U_switched	e_long_2_2.wav	413598	416033	417986
1	39	1_9	1	1	2458	1	2786	1509	O_W	a_long_2_3_loudCheck.wav	422805	425263	426849
1	40	5_6	3	2	1847	0	2219	2244	S_T	e_long_2_2.wav	431096	432943	435892
1	41	1_3	1	1	2346	0	2678	2155	O_Q_switched	a_long_2_3_loudCheck.wav	440598	442944	445296
1	42	6_14	4	1	2099	0	3581	2898	T_¸_switched	sche_2_1.wav	450910	453009	456333
1	43	5_4	3	2	1610	1	2134	2341	S_»_switched	e_long_2_2.wav	460491	462101	465369
1	44	11_16	6	1	2248	1	1738	1453	Y_º	wö_2_2_loudCheck.wav	469137	471385	473123
1	45	1_5	1	1	1671	1	2221	2131	O_S	a_long_2_3_loudCheck.wav	477378	479049	482042
1	46	5_14	3	1	2331	0	2986	2035	S_¸_switched	e_long_2_2.wav	487052	489383	491639
1	47	3_10	2	2	2278	1	2871	2220	Q_X_switched	un_short_2_1_loudCheck.wav	496547	498825	501300
1	48	10_15	5	2	1294	1	2010	2754	X_¹_switched	st_2_2_loudCheck.wav	505345	506639	510627
