block	trial	vStims	aStim	resp	rt	fb	iti	feedJitter	vSymbols	aFile	stimOnset	respOnset	feedbackOnset
1	1	2	3	2	1	1707	1	1852	1592	R	V	R	e_short_2_2.wav	practice	practice	practice
1	2	1	2	2	2	869	1	3200	1066	N	R	R	e_short_2_2.wav	practice	practice	practice
1	3	2	3	3	2	775	1	2458	1996	R	V	V	t_2_1_loudCheck.wav	practice	practice	practice
1	4	1	3	1	1	1019	1	2134	2130	N	V	N	a_short_2_2.wav	practice	practice	practice
1	5	2	1	1	2	853	1	2182	1628	R	N	N	a_short_2_2.wav	practice	practice	practice
1	6	3	1	3	1	746	1	2350	2619	V	N	V	t_2_1_loudCheck.wav	practice	practice	practice
1	1	10_14	5	1	2134	1	2881	1105	X_¸	st_2_2_loudCheck.wav	47213	49347	50851
1	2	3_8	2	1	1729	1	2885	1453	Q_¼	un_short_2_1_loudCheck.wav	55766	57495	59748
1	3	11_4	6	1	1616	1	2670	2130	Y_»	wö_2_2_loudCheck.wav	64436	66052	69091
1	4	1_3	1	2	1998	0	2632	1066	O_Q	a_long_2_3_loudCheck.wav	73751	75749	77348
1	5	6_1	4	2	1098	1	2010	1592	T_O_switched	sche_2_1.wav	81377	82475	85501
1	6	3_13	2	1	1924	1	2364	1599	Q_·	un_short_2_1_loudCheck.wav	89894	91818	94040
1	7	6_7	4	2	1145	1	1738	2898	T_U_switched	sche_2_1.wav	97800	98945	103218
1	8	5_12	3	1	1224	1	2221	2924	S_½	e_long_2_2.wav	107469	108693	112916
1	9	11_3	6	1	1889	1	2925	2189	Y_Q	wö_2_2_loudCheck.wav	117862	119751	122574
1	10	10_7	5	1	1167	1	2871	1639	X_U	st_2_2_loudCheck.wav	127464	128631	131629
1	11	1_5	1	1	1044	1	2911	2403	O_S	a_long_2_3_loudCheck.wav	136556	137600	141478
1	12	3_1	2	2	1622	1	1991	2602	Q_O_switched	un_short_2_1_loudCheck.wav	145492	147114	150612
1	13	10_15	5	1	924	1	3114	2341	X_¹	st_2_2_loudCheck.wav	155751	156675	160610
1	14	6_10	4	2	1074	1	2269	1509	T_X_switched	sche_2_1.wav	164897	165971	168947
1	15	11_12	6	2	1747	1	2195	2131	Y_½_switched	wö_2_2_loudCheck.wav	173171	174918	177833
1	16	3_9	2	1	1694	0	2448	2422	Q_W_switched	un_short_2_1_loudCheck.wav	182308	184002	187260
1	17	10_15	5	1	1008	1	1927	2041	X_¹	st_2_2_loudCheck.wav	191208	192216	195797
1	18	11_12	6	2	2437	1	2035	2035	Y_½_switched	wö_2_2_loudCheck.wav	199848	202285	204407
1	19	6_11	4	1	979	1	1889	2619	T_Y	sche_2_1.wav	208318	209297	213456
1	20	1_5	1	2	978	1	3387	2155	O_S_switched	a_long_2_3_loudCheck.wav	218868	219846	223553
1	21	6_2	4	2	959	1	2503	1654	T_P_switched	sche_2_1.wav	228076	229035	232255
1	22	10_16	5	2	1191	1	2335	2151	X_º_switched	st_2_2_loudCheck.wav	236608	237799	241284
1	23	6_11	4	1	884	1	2720	1395	T_Y	sche_2_1.wav	246028	246912	249949
1	24	11_4	6	1	1300	1	2458	1670	Y_»	wö_2_2_loudCheck.wav	254432	255732	258622
1	25	3_13	2	2	1033	0	2350	2123	Q_·_switched	un_short_2_1_loudCheck.wav	262991	264024	267641
1	26	6_2	4	2	844	1	3066	1146	T_P_switched	sche_2_1.wav	272725	273569	276403
1	27	5_13	3	1	1191	1	1760	2582	S_·	e_long_2_2.wav	280186	281377	285299
1	28	1_16	1	1	992	1	1852	1795	O_º	a_long_2_3_loudCheck.wav	289179	290171	293497
1	29	3_10	2	2	1538	1	2466	1855	Q_X_switched	un_short_2_1_loudCheck.wav	297990	299528	302391
1	30	5_1	3	2	998	1	2678	1656	S_O_switched	e_long_2_2.wav	307087	308085	311261
1	31	1_8	1	2	900	1	2586	1582	O_¼_switched	a_long_2_3_loudCheck.wav	315862	316762	319970
1	32	5_11	3	2	860	1	3740	1289	S_Y_switched	e_long_2_2.wav	325733	326593	329551
1	33	11_2	6	2	1983	1	2954	1779	Y_P_switched	wö_2_2_loudCheck.wav	334535	336518	338841
1	34	10_6	5	2	852	0	2532	1796	X_T	st_2_2_loudCheck.wav	343400	344252	347726
1	35	11_8	6	2	1196	1	2134	1380	Y_¼_switched	wö_2_2_loudCheck.wav	351886	353082	355792
1	36	10_9	5	1	2343	0	2219	2244	X_W_switched	st_2_2_loudCheck.wav	360034	362377	364803
1	37	3_6	2	1	1374	1	2182	2324	Q_T	un_short_2_1_loudCheck.wav	369015	370389	373867
1	38	5_7	3	2	862	1	3315	2754	S_U_switched	e_long_2_2.wav	379201	380063	384473
1	39	1_9	1	1	1344	1	2836	2576	O_W	a_long_2_3_loudCheck.wav	389332	390676	394436
1	40	5_6	3	1	1184	1	2334	1628	S_T	e_long_2_2.wav	398788	399972	402942
1	41	1_3	1	2	1442	1	3200	1996	O_Q_switched	a_long_2_3_loudCheck.wav	408169	409611	412714
1	42	6_14	4	1	1702	1	2841	1574	T_¸	sche_2_1.wav	417583	419285	421696
1	43	5_4	3	1	896	1	3581	1465	S_»	e_long_2_2.wav	427308	428204	431293
1	44	11_16	6	2	1248	1	2671	899	Y_º_switched	wö_2_2_loudCheck.wav	435986	437234	439410
1	45	1_5	1	2	1050	1	1615	2220	O_S_switched	a_long_2_3_loudCheck.wav	443044	444094	447788
1	46	5_14	3	2	1082	1	2639	1718	S_¸_switched	e_long_2_2.wav	452449	453531	456690
1	47	3_10	2	1	1664	1	2986	1320	Q_X	un_short_2_1_loudCheck.wav	461697	463361	465562
1	48	10_15	5	1	995	1	2786	2173	X_¹	st_2_2_loudCheck.wav	470365	471360	475082
