block	trial	vStims	aStim	resp	rt	fb	iti	feedJitter	vSymbols	aFile	stimOnset	respOnset	feedbackOnset
1	1	2	3	2	1	2533	1	1852	1592	R	V	R	e_short_2_2.wav	practice	practice	practice
1	2	1	2	2	2	830	1	3200	1066	N	R	R	e_short_2_2.wav	practice	practice	practice
1	3	2	3	3	2	940	1	2458	1996	R	V	V	t_2_1.wav	practice	practice	practice
1	4	1	3	1	1	1234	1	2134	2130	N	V	N	a_short_2_2.wav	practice	practice	practice
1	5	2	1	1	2	890	1	2182	1628	R	N	N	a_short_2_2.wav	practice	practice	practice
1	6	3	1	3	1	817	1	2350	2619	V	N	V	t_2_1.wav	practice	practice	practice
1	1	5_9	4	0	0	2	2678	1380	T_Y	sche_2_1.wav	57765	0	61172
1	2	8_1	5	2	1550	1	2836	1066	X_O_switched	st_2_2.wav	66032	67582	69149
1	3	5_2	4	2	1774	1	2871	2576	T_P_switched	sche_2_1.wav	74058	75832	78667
1	4	1_6	1	1	951	1	2911	1592	O_U	a_long_2_3.wav	83607	84558	87226
1	5	3_9	2	1	1672	0	1927	1599	Q_Y_switched	un_short_2_1.wav	91182	92854	94807
1	6	1_4	1	1	1129	1	2720	1670	O_S	a_long_2_3.wav	99566	100695	103270
1	7	4_3	3	1	1473	1	2269	2924	S_Q	e_long_2_2.wav	107573	109046	112532
1	8	9_2	6	0	0	2	2010	2341	Y_P	wö_2_2.wav	116573	0	120958
1	9	5_8	4	0	0	2	2632	2189	T_X_switched	sche_2_1.wav	125621	0	129848
1	10	8_9	5	1	1805	1	2364	1855	X_Y	st_2_2.wav	134245	136050	138140
1	11	3_1	2	2	1396	1	1889	1289	Q_O_switched	un_short_2_1.wav	142061	143457	145381
1	12	8_2	5	2	1619	1	2671	2898	X_P_switched	st_2_2.wav	150084	151703	155015
1	13	4_7	3	2	1020	1	2986	2220	S_W_switched	e_long_2_2.wav	160025	161045	164280
1	14	1_3	1	1	1230	1	2841	1465	O_Q	a_long_2_3.wav	169156	170386	172668
1	15	3_2	2	2	1718	0	2881	2602	Q_P	un_short_2_1.wav	177571	179289	182197
1	16	9_4	6	1	1644	1	2195	2422	Y_S	wö_2_2.wav	186428	188072	190875
1	17	5_1	4	2	1786	1	2532	2244	T_O_switched	sche_2_1.wav	195440	197226	199723
1	18	3_8	2	1	1644	0	2221	1509	Q_X_switched	un_short_2_1.wav	203972	205616	207513
1	19	5_3	4	1	1580	1	2448	2130	T_Q	sche_2_1.wav	211990	213570	216142
1	20	9_5	6	0	0	2	3740	1996	Y_T	wö_2_2.wav	221907	0	225952
1	21	4_9	3	1	914	1	3387	1654	S_Y	e_long_2_2.wav	231364	232278	235052
1	22	3_6	2	2	1180	1	2035	2041	Q_U_switched	un_short_2_1.wav	239121	240301	243197
1	23	9_4	6	2	1515	1	1760	1105	Y_S_switched	wö_2_2.wav	246987	248502	250119
1	24	4_5	3	2	974	1	2954	2131	S_T_switched	e_long_2_2.wav	255105	256079	259286
1	25	8_3	5	2	1420	1	1852	1628	X_Q_switched	st_2_2.wav	263162	264582	266825
1	26	1_5	1	1	779	1	2350	2754	O_T	a_long_2_3.wav	271201	271980	276009
1	27	8_4	5	1	1111	1	3200	899	X_S	st_2_2.wav	281243	282354	284181
1	28	4_8	3	2	932	1	2925	1639	S_X_switched	e_long_2_2.wav	289143	290075	292812
1	29	8_7	5	1	1894	1	2670	1718	X_W	st_2_2.wav	297514	299408	301266
1	30	1_9	1	1	774	1	3581	1395	O_Y	a_long_2_3.wav	306883	307657	310319
1	31	9_4	6	2	1076	1	1991	2619	Y_S_switched	wö_2_2.wav	314336	315412	319000
1	32	5_7	4	1	1326	1	2219	1795	T_W	sche_2_1.wav	323255	324581	327085
1	33	1_6	1	1	943	1	2335	2173	O_U	a_long_2_3.wav	331446	332389	335671
1	34	9_3	6	1	1381	1	2586	1574	Y_Q	wö_2_2.wav	340289	341670	343898
1	35	5_8	4	1	1017	1	2466	2324	T_X	sche_2_1.wav	348394	349411	352756
1	36	4_5	3	2	1031	1	2639	2582	S_T_switched	e_long_2_2.wav	357426	358457	362056
1	37	3_1	2	2	1524	1	2786	1656	Q_O_switched	un_short_2_1.wav	366865	368389	370556
1	38	4_7	3	2	1276	1	2885	1320	S_W_switched	e_long_2_2.wav	375473	376749	378829
1	39	1_4	1	2	1704	1	3114	2035	O_S_switched	a_long_2_3.wav	383977	385681	388053
1	40	8_1	5	0	0	2	2503	1146	X_O_switched	st_2_2.wav	392592	0	395772
1	41	3_6	2	1	1586	1	3315	1453	Q_U	un_short_2_1.wav	401111	402697	404588
1	42	5_7	4	2	1022	1	1615	1582	T_W_switched	sche_2_1.wav	408237	409259	411857
1	43	3_8	2	1	1638	1	2334	2155	Q_X	un_short_2_1.wav	416230	417868	420438
1	44	9_7	6	2	1266	0	2458	2123	Y_W	wö_2_2.wav	424929	426195	429081
1	45	4_5	3	1	1141	0	2134	2151	S_T_switched	e_long_2_2.wav	433247	434388	437451
1	46	9_1	6	1	1775	1	1738	2403	Y_O	wö_2_2.wav	441226	443001	445678
1	47	1_6	1	2	887	1	3066	1779	O_U_switched	a_long_2_3.wav	450779	451666	454597
1	48	8_2	5	2	1430	1	2182	1796	X_P_switched	st_2_2.wav	458804	460234	462638
